File: CPB_NCs_TA_PumpSpectra.txt
Unit Serial No : EM0P1805-EU
Integration Time : 30 ms
Time Average: 1
Binning Average: 1
FFT Smoothing: 0%
Project Name : Project Name
Sample Name : 0003
Measurement No : 1
Measurement Time : 05/29/2014   15:45:22

Wavelength(nm)	Wavenumber(1/cm)	Intensity(Counts)
350.0000      	28571.4    	2451.33
350.5000      	28530.7    	2479.67
351.0000      	28490    	2488.33
351.5000      	28449.5    	2479.67
352.0000      	28409.1    	2478.33
352.5000      	28368.8    	2474.33
353.0000      	28328.6    	2450.67
353.5000      	28288.5    	2376.33
354.0000      	28248.6    	2369.67
354.5000      	28208.7    	2385
355.0000      	28169    	2439
355.5000      	28129.4    	2455.67
356.0000      	28089.9    	2478
356.5000      	28050.5    	2484.67
357.0000      	28011.2    	2413
357.5000      	27972    	2387.67
358.0000      	27933    	2398
358.5000      	27894    	2376.33
359.0000      	27855.2    	2358
359.5000      	27816.4    	2383.67
360.0000      	27777.8    	2443
360.5000      	27739.3    	2539.67
361.0000      	27700.8    	2530
361.5000      	27662.5    	2501.33
362.0000      	27624.3    	2456.67
362.5000      	27586.2    	2385.67
363.0000      	27548.2    	2389
363.5000      	27510.3    	2375
364.0000      	27472.5    	2403.67
364.5000      	27434.8    	2456.67
365.0000      	27397.3    	2523.33
365.5000      	27359.8    	2542
366.0000      	27322.4    	2549.67
366.5000      	27285.1    	2485.33
367.0000      	27248    	2439
367.5000      	27210.9    	2407.33
368.0000      	27173.9    	2415.67
368.5000      	27137    	2430
369.0000      	27100.3    	2430
369.5000      	27063.6    	2461.67
370.0000      	27027    	2503
370.5000      	26990.6    	2496.33
371.0000      	26954.2    	2488.67
371.5000      	26917.9    	2487
372.0000      	26881.7    	2431
372.5000      	26845.6    	2407.67
373.0000      	26809.7    	2395
373.5000      	26773.8    	2408
374.0000      	26738    	2471.33
374.5000      	26702.3    	2476.67
375.0000      	26666.7    	2480.67
375.5000      	26631.2    	2515.67
376.0000      	26595.7    	2546.33
376.5000      	26560.4    	2531.33
377.0000      	26525.2    	2506
377.5000      	26490.1    	2434.33
378.0000      	26455    	2465.67
378.5000      	26420.1    	2493.67
379.0000      	26385.2    	2527.67
379.5000      	26350.5    	2546.33
380.0000      	26315.8    	2559.67
380.5000      	26281.2    	2556.33
381.0000      	26246.7    	2524
381.5000      	26212.3    	2438.33
382.0000      	26178    	2418.67
382.5000      	26143.8    	2411.67
383.0000      	26109.7    	2414.67
383.5000      	26075.6    	2459.67
384.0000      	26041.7    	2481
384.5000      	26007.8    	2469.33
385.0000      	25974    	2440.67
385.5000      	25940.3    	2446.67
386.0000      	25906.7    	2443
386.5000      	25873.2    	2447
387.0000      	25839.8    	2427.67
387.5000      	25806.5    	2431.67
388.0000      	25773.2    	2439
388.5000      	25740    	2399.33
389.0000      	25706.9    	2463.33
389.5000      	25673.9    	2532
390.0000      	25641    	2554.67
390.5000      	25608.2    	2513
391.0000      	25575.4    	2482.33
391.5000      	25542.8    	2467
392.0000      	25510.2    	2453.67
392.5000      	25477.7    	2440
393.0000      	25445.3    	2455
393.5000      	25413    	2478.33
394.0000      	25380.7    	2498.67
394.5000      	25348.5    	2502.67
395.0000      	25316.5    	2465.67
395.5000      	25284.5    	2450.33
396.0000      	25252.5    	2461.67
396.5000      	25220.7    	2504.67
397.0000      	25188.9    	2511.67
397.5000      	25157.2    	2501.33
398.0000      	25125.6    	2504.67
398.5000      	25094.1    	2618.67
399.0000      	25062.7    	2672
399.5000      	25031.3    	2691
400.0000      	25000    	2728.67
400.5000      	24968.8    	2896.67
401.0000      	24937.7    	3050.33
401.5000      	24906.6    	3313.33
402.0000      	24875.6    	3813.67
402.5000      	24844.7    	5780.33
403.0000      	24813.9    	7492
403.5000      	24783.1    	9825.33
404.0000      	24752.5    	12790.3
404.5000      	24721.9    	20464
405.0000      	24691.4    	24551.7
405.5000      	24660.9    	28325
406.0000      	24630.5    	31750
406.5000      	24600.2    	38363.7
407.0000      	24570    	41340.7
407.5000      	24539.9    	43389.3
408.0000      	24509.8    	44387.7
408.5000      	24479.8    	42872
409.0000      	24449.9    	40628
409.5000      	24420    	37971.7
410.0000      	24390.2    	35317.7
410.5000      	24360.5    	29284.3
411.0000      	24330.9    	25278
411.5000      	24301.3    	21075.7
412.0000      	24271.8    	17231.7
412.5000      	24242.4    	11122.7
413.0000      	24213.1    	8877.67
413.5000      	24183.8    	7171.67
414.0000      	24154.6    	5868.33
414.5000      	24125.5    	4022
415.0000      	24096.4    	3435.67
415.5000      	24067.4    	3070.33
416.0000      	24038.5    	2840.33
416.5000      	24009.6    	2574
417.0000      	23980.8    	2516
417.5000      	23952.1    	2499
418.0000      	23923.4    	2501.33
418.5000      	23894.9    	2485
419.0000      	23866.3    	2453.67
419.5000      	23837.9    	2403.33
420.0000      	23809.5    	2389.33
420.5000      	23781.2    	2419.33
421.0000      	23753    	2434.67
421.5000      	23724.8    	2431.67
422.0000      	23696.7    	2464.67
422.5000      	23668.6    	2507.33
423.0000      	23640.7    	2500.33
423.5000      	23612.8    	2490
424.0000      	23584.9    	2493.67
424.5000      	23557.1    	2509.33
425.0000      	23529.4    	2459.33
425.5000      	23501.8    	2415.67
426.0000      	23474.2    	2429
426.5000      	23446.7    	2487.33
427.0000      	23419.2    	2512
427.5000      	23391.8    	2546
428.0000      	23364.5    	2520.33
428.5000      	23337.2    	2457.33
429.0000      	23310    	2456.33
429.5000      	23282.9    	2457.67
430.0000      	23255.8    	2434.67
430.5000      	23228.8    	2395
431.0000      	23201.9    	2412
431.5000      	23175    	2427
432.0000      	23148.1    	2455.67
432.5000      	23121.4    	2506.33
433.0000      	23094.7    	2490.67
433.5000      	23068.1    	2475.33
434.0000      	23041.5    	2483.33
434.5000      	23015    	2471.67
435.0000      	22988.5    	2421.67
435.5000      	22962.1    	2425.33
436.0000      	22935.8    	2454.67
436.5000      	22909.5    	2573
437.0000      	22883.3    	2602
437.5000      	22857.1    	2574.33
438.0000      	22831.1    	2530.33
438.5000      	22805    	2442.33
439.0000      	22779    	2446.33
439.5000      	22753.1    	2438
440.0000      	22727.3    	2434.67
440.5000      	22701.5    	2409.33
441.0000      	22675.7    	2426
441.5000      	22650.1    	2475.67
442.0000      	22624.4    	2506
442.5000      	22598.9    	2484.67
443.0000      	22573.4    	2438
443.5000      	22547.9    	2411.33
444.0000      	22522.5    	2402
444.5000      	22497.2    	2443
445.0000      	22471.9    	2423.33
445.5000      	22446.7    	2427
446.0000      	22421.5    	2456.33
446.5000      	22396.4    	2509
447.0000      	22371.4    	2500.33
447.5000      	22346.4    	2506.67
448.0000      	22321.4    	2482.67
448.5000      	22296.5    	2471.33
449.0000      	22271.7    	2425.33
449.5000      	22246.9    	2425.67
450.0000      	22222.2    	2437.67
450.5000      	22197.6    	2494.33
451.0000      	22172.9    	2540.67
451.5000      	22148.4    	2513.67
452.0000      	22123.9    	2515.33
452.5000      	22099.4    	2525
453.0000      	22075.1    	2498
453.5000      	22050.7    	2442
454.0000      	22026.4    	2420.33
454.5000      	22002.2    	2398.67
455.0000      	21978    	2404.67
455.5000      	21953.9    	2423.67
456.0000      	21929.8    	2460.33
456.5000      	21905.8    	2486
457.0000      	21881.8    	2510.67
457.5000      	21857.9    	2496
458.0000      	21834.1    	2510.33
458.5000      	21810.3    	2455.67
459.0000      	21786.5    	2391.33
459.5000      	21762.8    	2395
460.0000      	21739.1    	2416.67
460.5000      	21715.5    	2443.67
461.0000      	21692    	2464
461.5000      	21668.5    	2505.67
462.0000      	21645    	2531.67
462.5000      	21621.6    	2536
463.0000      	21598.3    	2502
463.5000      	21575    	2409.67
464.0000      	21551.7    	2388.67
464.5000      	21528.5    	2379.67
465.0000      	21505.4    	2409.67
465.5000      	21482.3    	2496
466.0000      	21459.2    	2506
466.5000      	21436.2    	2533
467.0000      	21413.3    	2545
467.5000      	21390.4    	2455.33
468.0000      	21367.5    	2414.33
468.5000      	21344.7    	2417
469.0000      	21322    	2424
469.5000      	21299.3    	2446.67
470.0000      	21276.6    	2475
470.5000      	21254    	2494.67
471.0000      	21231.4    	2506.67
471.5000      	21208.9    	2545.67
472.0000      	21186.4    	2536.67
472.5000      	21164    	2482
473.0000      	21141.6    	2466.33
473.5000      	21119.3    	2454
474.0000      	21097    	2476
474.5000      	21074.8    	2486.33
475.0000      	21052.6    	2478.67
475.5000      	21030.5    	2481.67
476.0000      	21008.4    	2559
476.5000      	20986.4    	2595.33
477.0000      	20964.4    	2599
477.5000      	20942.4    	2561.67
478.0000      	20920.5    	2457.33
478.5000      	20898.6    	2448
479.0000      	20876.8    	2463.67
479.5000      	20855.1    	2488
480.0000      	20833.3    	2520.67
480.5000      	20811.7    	2592.67
481.0000      	20790    	2612.67
481.5000      	20768.4    	2624.67
482.0000      	20746.9    	2602
482.5000      	20725.4    	2585
483.0000      	20703.9    	2570.67
483.5000      	20682.5    	2543.67
484.0000      	20661.2    	2500.33
484.5000      	20639.8    	2548.67
485.0000      	20618.6    	2607.33
485.5000      	20597.3    	2635.67
486.0000      	20576.1    	2622
486.5000      	20555    	2629
487.0000      	20533.9    	2607.67
487.5000      	20512.8    	2581
488.0000      	20491.8    	2528
488.5000      	20470.8    	2525
489.0000      	20449.9    	2562.67
489.5000      	20429    	2572.33
490.0000      	20408.2    	2589.67
490.5000      	20387.4    	2609.67
491.0000      	20366.6    	2726.67
491.5000      	20345.9    	2749
492.0000      	20325.2    	2736
492.5000      	20304.6    	2737.67
493.0000      	20284    	2733
493.5000      	20263.4    	2731.33
494.0000      	20242.9    	2723.33
494.5000      	20222.4    	2758.33
495.0000      	20202    	2799.33
495.5000      	20181.6    	2927.33
496.0000      	20161.3    	2988.33
496.5000      	20141    	3041.67
497.0000      	20120.7    	3068.67
497.5000      	20100.5    	3291.33
498.0000      	20080.3    	3544
498.5000      	20060.2    	3818
499.0000      	20040.1    	4086.67
499.5000      	20020    	4329
500.0000      	20000    	4881.67
500.5000      	19980    	5201.67
501.0000      	19960.1    	5563.33
501.5000      	19940.2    	5898.67
502.0000      	19920.3    	6519.67
502.5000      	19900.5    	6882.67
503.0000      	19880.7    	7330.33
503.5000      	19861    	7762.33
504.0000      	19841.3    	8228
504.5000      	19821.6    	9199.33
505.0000      	19802    	9628
505.5000      	19782.4    	10064.3
506.0000      	19762.8    	10490.7
506.5000      	19743.3    	11436.3
507.0000      	19723.9    	11992
507.5000      	19704.4    	12764.7
508.0000      	19685    	13735.7
508.5000      	19665.7    	14911.3
509.0000      	19646.4    	17530.3
509.5000      	19627.1    	18960.7
510.0000      	19607.8    	20529
510.5000      	19588.6    	22269.7
511.0000      	19569.5    	26158
511.5000      	19550.3    	28281.3
512.0000      	19531.2    	30079.7
512.5000      	19512.2    	31634.3
513.0000      	19493.2    	34221.7
513.5000      	19474.2    	35386.3
514.0000      	19455.3    	36480.7
514.5000      	19436.3    	37479.7
515.0000      	19417.5    	38159
515.5000      	19398.6    	38468.3
516.0000      	19379.8    	38091.3
516.5000      	19361.1    	37334
517.0000      	19342.4    	36484.3
517.5000      	19323.7    	34694.7
518.0000      	19305    	33663.3
518.5000      	19286.4    	32237.7
519.0000      	19267.8    	30429.3
519.5000      	19249.3    	28206.7
520.0000      	19230.8    	24175.3
520.5000      	19212.3    	22297
521.0000      	19193.9    	20481
521.5000      	19175.5    	18782
522.0000      	19157.1    	15733.7
522.5000      	19138.8    	14264.7
523.0000      	19120.5    	12845.3
523.5000      	19102.2    	11570.3
524.0000      	19084    	10454
524.5000      	19065.8    	8638.67
525.0000      	19047.6    	7865
525.5000      	19029.5    	7207.33
526.0000      	19011.4    	6594.67
526.5000      	18993.4    	6041
527.0000      	18975.3    	5318.67
527.5000      	18957.3    	5120.33
528.0000      	18939.4    	4890.67
528.5000      	18921.5    	4641.33
529.0000      	18903.6    	4220.67
529.5000      	18885.7    	4022
530.0000      	18867.9    	3776.33
530.5000      	18850.1    	3555
531.0000      	18832.4    	3356
531.5000      	18814.7    	3051
532.0000      	18797    	2884.33
532.5000      	18779.3    	2734.33
533.0000      	18761.7    	2648.33
533.5000      	18744.1    	2676.67
534.0000      	18726.6    	2685
534.5000      	18709.1    	2672
535.0000      	18691.6    	2635.67
535.5000      	18674.1    	2603.33
536.0000      	18656.7    	2507.33
536.5000      	18639.3    	2484.33
537.0000      	18622    	2455.33
537.5000      	18604.7    	2434.33
538.0000      	18587.4    	2412.33
538.5000      	18570.1    	2432
539.0000      	18552.9    	2465.67
539.5000      	18535.7    	2502.33
540.0000      	18518.5    	2523.67
540.5000      	18501.4    	2542.67
541.0000      	18484.3    	2566.67
541.5000      	18467.2    	2569
542.0000      	18450.2    	2584
542.5000      	18433.2    	2609
543.0000      	18416.2    	2658
543.5000      	18399.3    	2710.33
544.0000      	18382.4    	2798
544.5000      	18365.5    	2854.33
545.0000      	18348.6    	2877
545.5000      	18331.8    	2870.33
546.0000      	18315    	2859.67
546.5000      	18298.3    	2809.67
547.0000      	18281.5    	2773
547.5000      	18264.8    	2786
548.0000      	18248.2    	2726
548.5000      	18231.5    	2612
549.0000      	18214.9    	2595.67
549.5000      	18198.4    	2597
550.0000      	18181.8    	2641.33
550.5000      	18165.3    	2654
551.0000      	18148.8    	2656.33
551.5000      	18132.4    	2581.33
552.0000      	18115.9    	2496
552.5000      	18099.5    	2491.33
553.0000      	18083.2    	2499.67
553.5000      	18066.8    	2552.67
554.0000      	18050.5    	2594.33
554.5000      	18034.3    	2591.67
555.0000      	18018    	2563
555.5000      	18001.8    	2545
556.0000      	17985.6    	2502.67
556.5000      	17969.5    	2481.67
557.0000      	17953.3    	2442.67
557.5000      	17937.2    	2415
558.0000      	17921.1    	2379.33
558.5000      	17905.1    	2373.33
559.0000      	17889.1    	2402
559.5000      	17873.1    	2441
560.0000      	17857.1    	2482
560.5000      	17841.2    	2508.67
561.0000      	17825.3    	2506.67
561.5000      	17809.4    	2471.33
562.0000      	17793.6    	2445.67
562.5000      	17777.8    	2429.33
563.0000      	17762    	2393.33
563.5000      	17746.2    	2407.67
564.0000      	17730.5    	2504.33
564.5000      	17714.8    	2533.67
565.0000      	17699.1    	2528.67
565.5000      	17683.5    	2540
566.0000      	17667.8    	2494.67
566.5000      	17652.3    	2398.67
567.0000      	17636.7    	2386
567.5000      	17621.1    	2383.67
568.0000      	17605.6    	2382.33
568.5000      	17590.1    	2412
569.0000      	17574.7    	2452.67
569.5000      	17559.3    	2479.33
570.0000      	17543.9    	2487.33
570.5000      	17528.5    	2465
571.0000      	17513.1    	2418
571.5000      	17497.8    	2407
572.0000      	17482.5    	2394.33
572.5000      	17467.2    	2376
573.0000      	17452    	2372
573.5000      	17436.8    	2429.67
574.0000      	17421.6    	2470.67
574.5000      	17406.4    	2481
575.0000      	17391.3    	2483.33
575.5000      	17376.2    	2493.33
576.0000      	17361.1    	2507.33
576.5000      	17346.1    	2517.67
577.0000      	17331    	2508
577.5000      	17316    	2519.67
578.0000      	17301    	2479.67
578.5000      	17286.1    	2503.33
579.0000      	17271.2    	2580.33
579.5000      	17256.3    	2635.33
580.0000      	17241.4    	2666.33
580.5000      	17226.5    	2642
581.0000      	17211.7    	2610
581.5000      	17196.9    	2551
582.0000      	17182.1    	2508.33
582.5000      	17167.4    	2473.33
583.0000      	17152.7    	2493.33
583.5000      	17138    	2496
584.0000      	17123.3    	2529.67
584.5000      	17108.6    	2513.67
585.0000      	17094    	2525.33
585.5000      	17079.4    	2510
586.0000      	17064.8    	2502.67
586.5000      	17050.3    	2495.33
587.0000      	17035.8    	2462.33
587.5000      	17021.3    	2451.67
588.0000      	17006.8    	2482
588.5000      	16992.4    	2521.67
589.0000      	16977.9    	2571
589.5000      	16963.5    	2591.33
590.0000      	16949.2    	2617.67
590.5000      	16934.8    	2664
591.0000      	16920.5    	2678.33
591.5000      	16906.2    	2684.67
592.0000      	16891.9    	2670
592.5000      	16877.6    	2647
593.0000      	16863.4    	2701.33
593.5000      	16849.2    	2774.67
594.0000      	16835    	2846.67
594.5000      	16820.9    	2879.67
595.0000      	16806.7    	2921.33
595.5000      	16792.6    	2888.33
596.0000      	16778.5    	2826.67
596.5000      	16764.5    	2784
597.0000      	16750.4    	2788
597.5000      	16736.4    	2756
598.0000      	16722.4    	2694.33
598.5000      	16708.4    	2700.67
599.0000      	16694.5    	2734
599.5000      	16680.6    	2738.33
600.0000      	16666.7    	2729
600.5000      	16652.8    	2644.33
601.0000      	16638.9    	2604
601.5000      	16625.1    	2548
602.0000      	16611.3    	2516.33
602.5000      	16597.5    	2497.33
603.0000      	16583.7    	2475.67
603.5000      	16570    	2473.33
604.0000      	16556.3    	2492.33
604.5000      	16542.6    	2492
605.0000      	16528.9    	2508.67
605.5000      	16515.3    	2526.67
606.0000      	16501.7    	2500.33
606.5000      	16488    	2462.33
607.0000      	16474.5    	2439.67
607.5000      	16460.9    	2428.33
608.0000      	16447.4    	2434.67
608.5000      	16433.9    	2459.67
609.0000      	16420.4    	2509
609.5000      	16406.9    	2540
610.0000      	16393.4    	2559.67
610.5000      	16380    	2559
611.0000      	16366.6    	2509.67
611.5000      	16353.2    	2490.67
612.0000      	16339.9    	2482.67
612.5000      	16326.5    	2700.67
613.0000      	16313.2    	2807.67
613.5000      	16299.9    	2833.33
614.0000      	16286.6    	2785.67
614.5000      	16273.4    	2740
615.0000      	16260.2    	2674.33
615.5000      	16247    	2573.67
616.0000      	16233.8    	2553
616.5000      	16220.6    	2544
617.0000      	16207.5    	2526.67
617.5000      	16194.3    	2489.67
618.0000      	16181.2    	2440.33
618.5000      	16168.1    	2449.33
619.0000      	16155.1    	2483.67
619.5000      	16142    	2513
620.0000      	16129    	2541.33
620.5000      	16116    	2521.67
621.0000      	16103.1    	2474.67
621.5000      	16090.1    	2446
622.0000      	16077.2    	2433
622.5000      	16064.3    	2443.33
623.0000      	16051.4    	2481
623.5000      	16038.5    	2483.67
624.0000      	16025.6    	2478
624.5000      	16012.8    	2466
625.0000      	16000    	2506.67
625.5000      	15987.2    	2540.33
626.0000      	15974.4    	2484
626.5000      	15961.7    	2409.33
627.0000      	15949    	2405
627.5000      	15936.3    	2416.67
628.0000      	15923.6    	2445.67
628.5000      	15910.9    	2455.33
629.0000      	15898.3    	2467.33
629.5000      	15885.6    	2483.33
630.0000      	15873    	2503.67
630.5000      	15860.4    	2497.33
631.0000      	15847.9    	2466.67
631.5000      	15835.3    	2435
632.0000      	15822.8    	2414.33
632.5000      	15810.3    	2422.33
633.0000      	15797.8    	2483.33
633.5000      	15785.3    	2504.67
634.0000      	15772.9    	2517.33
634.5000      	15760.4    	2508.33
635.0000      	15748    	2509
635.5000      	15735.6    	2473.33
636.0000      	15723.3    	2444.67
636.5000      	15710.9    	2407.33
637.0000      	15698.6    	2404.67
637.5000      	15686.3    	2391
638.0000      	15674    	2378
638.5000      	15661.7    	2406
639.0000      	15649.5    	2446.67
639.5000      	15637.2    	2450
640.0000      	15625    	2444.67
640.5000      	15612.8    	2436.67
641.0000      	15600.6    	2451.67
641.5000      	15588.5    	2431.33
642.0000      	15576.3    	2431.67
642.5000      	15564.2    	2408.33
643.0000      	15552.1    	2420
643.5000      	15540    	2432
644.0000      	15528    	2435.67
644.5000      	15515.9    	2436
645.0000      	15503.9    	2448.67
645.5000      	15491.9    	2470.67
646.0000      	15479.9    	2441.67
646.5000      	15467.9    	2409.67
647.0000      	15456    	2428
647.5000      	15444    	2407.33
648.0000      	15432.1    	2381.67
648.5000      	15420.2    	2385.67
649.0000      	15408.3    	2425.67
649.5000      	15396.5    	2446.33
650.0000      	15384.6    	2438
650.5000      	15372.8    	2421.67
651.0000      	15361    	2408.33
651.5000      	15349.2    	2411.67
652.0000      	15337.4    	2397
652.5000      	15325.7    	2375.33
653.0000      	15313.9    	2371
653.5000      	15302.2    	2396
654.0000      	15290.5    	2469.67
654.5000      	15278.8    	2504
655.0000      	15267.2    	2505
655.5000      	15255.5    	2485
656.0000      	15243.9    	2480.67
656.5000      	15232.3    	2429.67
657.0000      	15220.7    	2377.67
657.5000      	15209.1    	2359.67
658.0000      	15197.6    	2376.67
658.5000      	15186    	2400.67
659.0000      	15174.5    	2456.67
659.5000      	15163    	2485.67
660.0000      	15151.5    	2491.33
660.5000      	15140    	2517.67
661.0000      	15128.6    	2549.33
661.5000      	15117.2    	2465
662.0000      	15105.7    	2379.33
662.5000      	15094.3    	2362
663.0000      	15083    	2345
663.5000      	15071.6    	2362.33
664.0000      	15060.2    	2405.67
664.5000      	15048.9    	2500.67
665.0000      	15037.6    	2513.33
665.5000      	15026.3    	2543.67
666.0000      	15015    	2514
666.5000      	15003.8    	2460.67
667.0000      	14992.5    	2403.67
667.5000      	14981.3    	2380
668.0000      	14970.1    	2350
668.5000      	14958.9    	2353
669.0000      	14947.7    	2397.33
669.5000      	14936.5    	2475.33
670.0000      	14925.4    	2489
670.5000      	14914.2    	2503.33
671.0000      	14903.1    	2486.67
671.5000      	14892    	2471.67
672.0000      	14881    	2477
672.5000      	14869.9    	2458.33
673.0000      	14858.8    	2420.67
673.5000      	14847.8    	2392.33
674.0000      	14836.8    	2386.67
674.5000      	14825.8    	2427.33
675.0000      	14814.8    	2486
675.5000      	14803.8    	2504.67
676.0000      	14792.9    	2496
676.5000      	14782    	2473.33
677.0000      	14771    	2407.33
677.5000      	14760.1    	2420.33
678.0000      	14749.3    	2441
678.5000      	14738.4    	2430.33
679.0000      	14727.5    	2442.33
679.5000      	14716.7    	2496.33
680.0000      	14705.9    	2524.67
680.5000      	14695.1    	2509.33
681.0000      	14684.3    	2496.67
681.5000      	14673.5    	2460.33
682.0000      	14662.8    	2420.67
682.5000      	14652    	2391.67
683.0000      	14641.3    	2402
683.5000      	14630.6    	2429.67
684.0000      	14619.9    	2420.67
684.5000      	14609.2    	2413.33
685.0000      	14598.5    	2412
685.5000      	14587.9    	2446
686.0000      	14577.3    	2495.67
686.5000      	14566.6    	2472
687.0000      	14556    	2434
687.5000      	14545.5    	2417.67
688.0000      	14534.9    	2416
688.5000      	14524.3    	2434
689.0000      	14513.8    	2448.67
689.5000      	14503.3    	2464.67
690.0000      	14492.8    	2465.33
690.5000      	14482.3    	2467
691.0000      	14471.8    	2469
691.5000      	14461.3    	2457.33
692.0000      	14450.9    	2427.67
692.5000      	14440.4    	2417.33
693.0000      	14430    	2405
693.5000      	14419.6    	2401
694.0000      	14409.2    	2431
694.5000      	14398.8    	2466.67
695.0000      	14388.5    	2473.67
695.5000      	14378.1    	2463.67
696.0000      	14367.8    	2471.67
696.5000      	14357.5    	2492.67
697.0000      	14347.2    	2466.33
697.5000      	14336.9    	2423.33
698.0000      	14326.6    	2390.33
698.5000      	14316.4    	2384.67
699.0000      	14306.2    	2397.33
699.5000      	14295.9    	2406
700.0000      	14285.7    	2432.67
700.5000      	14275.5    	2474
701.0000      	14265.3    	2479.67
701.5000      	14255.2    	2464.67
702.0000      	14245    	2426.33
702.5000      	14234.9    	2414.67
703.0000      	14224.8    	2399.33
703.5000      	14214.6    	2381.67
704.0000      	14204.5    	2387.33
704.5000      	14194.5    	2422
705.0000      	14184.4    	2492.33
705.5000      	14174.3    	2501
706.0000      	14164.3    	2499.67
706.5000      	14154.3    	2501.67
707.0000      	14144.3    	2512
707.5000      	14134.3    	2485.33
708.0000      	14124.3    	2443.67
708.5000      	14114.3    	2440.33
709.0000      	14104.4    	2431.67
709.5000      	14094.4    	2430.33
710.0000      	14084.5    	2428.33
710.5000      	14074.6    	2451.33
711.0000      	14064.7    	2465
711.5000      	14054.8    	2460.67
712.0000      	14044.9    	2442.67
712.5000      	14035.1    	2414.33
713.0000      	14025.2    	2373.33
713.5000      	14015.4    	2323
714.0000      	14005.6    	2329
714.5000      	13995.8    	2372.33
715.0000      	13986    	2414
715.5000      	13976.2    	2436
716.0000      	13966.5    	2408.67
716.5000      	13956.7    	2427.67
717.0000      	13947    	2446.67
717.5000      	13937.3    	2431.67
718.0000      	13927.6    	2403.67
718.5000      	13917.9    	2353.67
719.0000      	13908.2    	2371.67
719.5000      	13898.5    	2415
720.0000      	13888.9    	2455.33
720.5000      	13879.3    	2457
721.0000      	13869.6    	2468.33
721.5000      	13860    	2503.33
722.0000      	13850.4    	2508.33
722.5000      	13840.8    	2470.33
723.0000      	13831.3    	2438
723.5000      	13821.7    	2431.67
724.0000      	13812.2    	2425
724.5000      	13802.6    	2362.33
725.0000      	13793.1    	2388.67
725.5000      	13783.6    	2431.67
726.0000      	13774.1    	2438
726.5000      	13764.6    	2430
727.0000      	13755.2    	2436
727.5000      	13745.7    	2429.67
728.0000      	13736.3    	2391.33
728.5000      	13726.8    	2370
729.0000      	13717.4    	2366
729.5000      	13708    	2374.67
730.0000      	13698.6    	2424.67
730.5000      	13689.3    	2458.33
731.0000      	13679.9    	2471.33
731.5000      	13670.5    	2475.33
732.0000      	13661.2    	2459
732.5000      	13651.9    	2435.67
733.0000      	13642.6    	2401
733.5000      	13633.3    	2365.67
734.0000      	13624    	2363
734.5000      	13614.7    	2378.67
735.0000      	13605.4    	2433
735.5000      	13596.2    	2471.67
736.0000      	13587    	2486.67
736.5000      	13577.7    	2483.33
737.0000      	13568.5    	2467.67
737.5000      	13559.3    	2440
738.0000      	13550.1    	2413
738.5000      	13541    	2422.67
739.0000      	13531.8    	2410.67
739.5000      	13522.7    	2384.33
740.0000      	13513.5    	2390.67
740.5000      	13504.4    	2416.33
741.0000      	13495.3    	2427.67
741.5000      	13486.2    	2457.67
742.0000      	13477.1    	2479.33
742.5000      	13468    	2481
743.0000      	13459    	2442.33
743.5000      	13449.9    	2437
744.0000      	13440.9    	2432.33
744.5000      	13431.8    	2406.67
745.0000      	13422.8    	2424.67
745.5000      	13413.8    	2439.33
746.0000      	13404.8    	2457.33
746.5000      	13395.8    	2460.33
747.0000      	13386.9    	2480
747.5000      	13377.9    	2479.33
748.0000      	13369    	2441.33
748.5000      	13360.1    	2408.33
749.0000      	13351.1    	2385
749.5000      	13342.2    	2382.33
750.0000      	13333.3    	2408.33
750.5000      	13324.5    	2443.33
751.0000      	13315.6    	2474.67
751.5000      	13306.7    	2476
752.0000      	13297.9    	2469.33
752.5000      	13289    	2482
753.0000      	13280.2    	2471
753.5000      	13271.4    	2423.33
754.0000      	13262.6    	2384
754.5000      	13253.8    	2362.33
755.0000      	13245    	2359
755.5000      	13236.3    	2377
756.0000      	13227.5    	2422
756.5000      	13218.8    	2434
757.0000      	13210    	2457.67
757.5000      	13201.3    	2509.33
758.0000      	13192.6    	2507.33
758.5000      	13183.9    	2483.33
759.0000      	13175.2    	2414
759.5000      	13166.6    	2396
760.0000      	13157.9    	2391.33
760.5000      	13149.2    	2427
761.0000      	13140.6    	2483.67
761.5000      	13132    	2526.33
762.0000      	13123.4    	2530.67
762.5000      	13114.8    	2528.33
763.0000      	13106.2    	2551.67
763.5000      	13097.6    	2532
764.0000      	13089    	2496
764.5000      	13080.4    	2411.33
765.0000      	13071.9    	2404.67
765.5000      	13063.4    	2394
766.0000      	13054.8    	2429.67
766.5000      	13046.3    	2446.33
767.0000      	13037.8    	2469.67
767.5000      	13029.3    	2488
768.0000      	13020.8    	2482.33
768.5000      	13012.4    	2473
769.0000      	13003.9    	2439.33
769.5000      	12995.5    	2399.67
770.0000      	12987    	2367
770.5000      	12978.6    	2428.67
771.0000      	12970.2    	2451.67
771.5000      	12961.8    	2463.67
772.0000      	12953.4    	2476.33
772.5000      	12945    	2507
773.0000      	12936.6    	2502
773.5000      	12928.2    	2403.33
774.0000      	12919.9    	2377
774.5000      	12911.6    	2393
775.0000      	12903.2    	2388
775.5000      	12894.9    	2383.33
776.0000      	12886.6    	2387.33
776.5000      	12878.3    	2408.33
777.0000      	12870    	2433.67
777.5000      	12861.7    	2514.67
778.0000      	12853.5    	2550.67
778.5000      	12845.2    	2538.33
779.0000      	12837    	2460.67
779.5000      	12828.7    	2441.33
780.0000      	12820.5    	2425.67
780.5000      	12812.3    	2413
781.0000      	12804.1    	2373.33
781.5000      	12795.9    	2429
782.0000      	12787.7    	2489
782.5000      	12779.6    	2503.67
783.0000      	12771.4    	2456.33
783.5000      	12763.2    	2443.33
784.0000      	12755.1    	2443
784.5000      	12747    	2444
785.0000      	12738.9    	2409.33
785.5000      	12730.7    	2335.33
786.0000      	12722.6    	2348.67
786.5000      	12714.6    	2404.33
787.0000      	12706.5    	2475.67
787.5000      	12698.4    	2499.67
788.0000      	12690.4    	2494.33
788.5000      	12682.3    	2477.33
789.0000      	12674.3    	2433.67
789.5000      	12666.2    	2377.33
790.0000      	12658.2    	2353
790.5000      	12650.2    	2368.67
791.0000      	12642.2    	2365.33
791.5000      	12634.2    	2477.67
792.0000      	12626.3    	2495.33
792.5000      	12618.3    	2484
793.0000      	12610.3    	2433.67
793.5000      	12602.4    	2467.67
794.0000      	12594.5    	2484
794.5000      	12586.5    	2431.67
795.0000      	12578.6    	2364.33
795.5000      	12570.7    	2359.67
796.0000      	12562.8    	2383.67
796.5000      	12554.9    	2443
797.0000      	12547.1    	2488.67
797.5000      	12539.2    	2537.67
798.0000      	12531.3    	2538.67
798.5000      	12523.5    	2534.33
799.0000      	12515.6    	2521
799.5000      	12507.8    	2480
800.0000      	12500    	2427.67
800.5000      	12492.2    	2397.33
801.0000      	12484.4    	2416.67
801.5000      	12476.6    	2430.33
802.0000      	12468.8    	2431.33
802.5000      	12461.1    	2437.67
803.0000      	12453.3    	2451.67
803.5000      	12445.6    	2527
804.0000      	12437.8    	2506
804.5000      	12430.1    	2457.67
805.0000      	12422.4    	2436
805.5000      	12414.6    	2418.67
806.0000      	12406.9    	2429
806.5000      	12399.3    	2439
807.0000      	12391.6    	2458.33
807.5000      	12383.9    	2525.33
808.0000      	12376.2    	2608.67
808.5000      	12368.6    	2670
809.0000      	12360.9    	2733
809.5000      	12353.3    	2809
810.0000      	12345.7    	2857.67
810.5000      	12338.1    	2933.33
811.0000      	12330.5    	3020.67
811.5000      	12322.9    	3098.33
812.0000      	12315.3    	3154.33
812.5000      	12307.7    	3265.33
813.0000      	12300.1    	3363.33
813.5000      	12292.6    	3450.67
814.0000      	12285    	3529
814.5000      	12277.5    	3591
815.0000      	12269.9    	3642.33
815.5000      	12262.4    	3675
816.0000      	12254.9    	3682.33
816.5000      	12247.4    	3679
817.0000      	12239.9    	3689.33
817.5000      	12232.4    	3689.33
818.0000      	12224.9    	3679.67
818.5000      	12217.5    	3681.33
819.0000      	12210    	3710.33
819.5000      	12202.6    	3690
820.0000      	12195.1    	3622.33
820.5000      	12187.7    	3509.67
821.0000      	12180.3    	3389.33
821.5000      	12172.9    	3287.33
822.0000      	12165.5    	3269
822.5000      	12158.1    	3241.33
823.0000      	12150.7    	3199.33
823.5000      	12143.3    	3135
824.0000      	12135.9    	3066
824.5000      	12128.6    	2944.67
825.0000      	12121.2    	2903.33
825.5000      	12113.9    	2843
826.0000      	12106.5    	2763.67
826.5000      	12099.2    	2678.67
827.0000      	12091.9    	2607.33
827.5000      	12084.6    	2560
828.0000      	12077.3    	2651.67
828.5000      	12070    	2691.67
829.0000      	12062.7    	2679.33
829.5000      	12055.5    	2578
830.0000      	12048.2    	2509
830.5000      	12040.9    	2442
831.0000      	12033.7    	2392.67
831.5000      	12026.5    	2387.33
832.0000      	12019.2    	2375.33
832.5000      	12012    	2365.67
833.0000      	12004.8    	2384.33
833.5000      	11997.6    	2406.67
834.0000      	11990.4    	2436.67
834.5000      	11983.2    	2427.33
835.0000      	11976    	2403.67
835.5000      	11968.9    	2393.33
836.0000      	11961.7    	2398.33
836.5000      	11954.6    	2411.67
837.0000      	11947.4    	2408.67
837.5000      	11940.3    	2410
838.0000      	11933.2    	2429
838.5000      	11926.1    	2450
839.0000      	11919    	2454.33
839.5000      	11911.9    	2455
840.0000      	11904.8    	2403
840.5000      	11897.7    	2369.33
841.0000      	11890.6    	2382
841.5000      	11883.5    	2412
842.0000      	11876.5    	2423
842.5000      	11869.4    	2445.33
843.0000      	11862.4    	2443.33
843.5000      	11855.4    	2423.33
844.0000      	11848.3    	2442
844.5000      	11841.3    	2455.67
845.0000      	11834.3    	2454.67
845.5000      	11827.3    	2442
846.0000      	11820.3    	2439.67
846.5000      	11813.3    	2424
847.0000      	11806.4    	2401.33
847.5000      	11799.4    	2388.67
848.0000      	11792.5    	2390
848.5000      	11785.5    	2420.33
849.0000      	11778.6    	2451
849.5000      	11771.6    	2449
850.0000      	11764.7    	2445
850.5000      	11757.8    	2451.33
851.0000      	11750.9    	2449
851.5000      	11744    	2455.33
852.0000      	11737.1    	2441
852.5000      	11730.2    	2393.33
853.0000      	11723.3    	2419.33
853.5000      	11716.5    	2447.33
854.0000      	11709.6    	2473.33
854.5000      	11702.8    	2461.67
855.0000      	11695.9    	2475.33
855.5000      	11689.1    	2546.33
856.0000      	11682.2    	2533.67
856.5000      	11675.4    	2468.67
857.0000      	11668.6    	2415.33
857.5000      	11661.8    	2402.67
858.0000      	11655    	2398
858.5000      	11648.2    	2388.67
859.0000      	11641.4    	2415
859.5000      	11634.7    	2442.33
860.0000      	11627.9    	2496.67
860.5000      	11621.2    	2518
861.0000      	11614.4    	2516.33
861.5000      	11607.7    	2453.67
862.0000      	11600.9    	2326.33
862.5000      	11594.2    	2326
863.0000      	11587.5    	2342.67
863.5000      	11580.8    	2365
864.0000      	11574.1    	2419
864.5000      	11567.4    	2462.67
865.0000      	11560.7    	2472.33
865.5000      	11554    	2475.67
866.0000      	11547.3    	2474.67
866.5000      	11540.7    	2459
867.0000      	11534    	2413
867.5000      	11527.4    	2384.33
868.0000      	11520.7    	2367.33
868.5000      	11514.1    	2418.67
869.0000      	11507.5    	2461
869.5000      	11500.9    	2485.33
870.0000      	11494.3    	2483.67
870.5000      	11487.7    	2472.67
871.0000      	11481.1    	2481.67
871.5000      	11474.5    	2493.33
872.0000      	11467.9    	2477.67
872.5000      	11461.3    	2462
873.0000      	11454.8    	2427.67
873.5000      	11448.2    	2398.33
874.0000      	11441.6    	2417.33
874.5000      	11435.1    	2500.33
875.0000      	11428.6    	2503.33
875.5000      	11422    	2479.33
876.0000      	11415.5    	2498
876.5000      	11409    	2513.33
877.0000      	11402.5    	2459
877.5000      	11396    	2399.33
878.0000      	11389.5    	2374.33
878.5000      	11383    	2393.67
879.0000      	11376.6    	2415
879.5000      	11370.1    	2445.67
880.0000      	11363.6    	2475.33
880.5000      	11357.2    	2493
881.0000      	11350.7    	2521.33
881.5000      	11344.3    	2529
882.0000      	11337.9    	2524
882.5000      	11331.4    	2495.33
883.0000      	11325    	2458
883.5000      	11318.6    	2407.33
884.0000      	11312.2    	2322.33
884.5000      	11305.8    	2321.67
885.0000      	11299.4    	2342
885.5000      	11293.1    	2380.67
886.0000      	11286.7    	2417.67
886.5000      	11280.3    	2450.67
887.0000      	11274    	2442.33
887.5000      	11267.6    	2417.33
888.0000      	11261.3    	2419.67
888.5000      	11254.9    	2412.67
889.0000      	11248.6    	2384
889.5000      	11242.3    	2386.67
890.0000      	11236    	2392.33
890.5000      	11229.6    	2475.33
891.0000      	11223.3    	2502.33
891.5000      	11217    	2527
892.0000      	11210.8    	2504.67
892.5000      	11204.5    	2496.67
893.0000      	11198.2    	2456.67
893.5000      	11191.9    	2391.67
894.0000      	11185.7    	2317
894.5000      	11179.4    	2342.33
895.0000      	11173.2    	2369
895.5000      	11166.9    	2380.33
896.0000      	11160.7    	2400.33
896.5000      	11154.5    	2434.33
897.0000      	11148.3    	2426.67
897.5000      	11142.1    	2410
898.0000      	11135.9    	2390.33
898.5000      	11129.7    	2382.33
899.0000      	11123.5    	2392.67
899.5000      	11117.3    	2404.67
900.0000      	11111.1    	2406
900.5000      	11104.9    	2433.33
901.0000      	11098.8    	2469
901.5000      	11092.6    	2487.67
902.0000      	11086.5    	2490.33
902.5000      	11080.3    	2498.67
903.0000      	11074.2    	2502.67
903.5000      	11068.1    	2441.33
904.0000      	11061.9    	2395.67
904.5000      	11055.8    	2378.33
905.0000      	11049.7    	2389
905.5000      	11043.6    	2408.33
906.0000      	11037.5    	2431.67
906.5000      	11031.4    	2475.67
907.0000      	11025.4    	2495
907.5000      	11019.3    	2496
908.0000      	11013.2    	2496.67
908.5000      	11007.2    	2486
909.0000      	11001.1    	2476.67
909.5000      	10995.1    	2463
910.0000      	10989    	2396.67
910.5000      	10983    	2391.67
911.0000      	10976.9    	2407.67
911.5000      	10970.9    	2448
912.0000      	10964.9    	2468
912.5000      	10958.9    	2484.33
913.0000      	10952.9    	2611.33
913.5000      	10946.9    	2646.33
914.0000      	10940.9    	2626
914.5000      	10934.9    	2456.67
915.0000      	10929    	2379.33
915.5000      	10923    	2383.67
916.0000      	10917    	2409.67
916.5000      	10911.1    	2457.33
917.0000      	10905.1    	2495.67
917.5000      	10899.2    	2518.33
918.0000      	10893.2    	2507
918.5000      	10887.3    	2479
919.0000      	10881.4    	2437.67
919.5000      	10875.5    	2393.33
920.0000      	10869.6    	2373.67
920.5000      	10863.7    	2378.67
921.0000      	10857.8    	2411.33
921.5000      	10851.9    	2475.67
922.0000      	10846    	2517
922.5000      	10840.1    	2510.33
923.0000      	10834.2    	2507.33
923.5000      	10828.4    	2498.67
924.0000      	10822.5    	2455.67
924.5000      	10816.7    	2424
925.0000      	10810.8    	2408.33
925.5000      	10805    	2397.33
926.0000      	10799.1    	2405.33
926.5000      	10793.3    	2485.33
927.0000      	10787.5    	2495
927.5000      	10781.7    	2492.67
928.0000      	10775.9    	2495
928.5000      	10770.1    	2495
929.0000      	10764.3    	2455.67
929.5000      	10758.5    	2384.33
930.0000      	10752.7    	2377.33
930.5000      	10746.9    	2396
931.0000      	10741.1    	2426.33
931.5000      	10735.4    	2466.33
932.0000      	10729.6    	2477.33
932.5000      	10723.9    	2469
933.0000      	10718.1    	2489.33
933.5000      	10712.4    	2505.67
934.0000      	10706.6    	2496.33
934.5000      	10700.9    	2451
935.0000      	10695.2    	2413.33
935.5000      	10689.5    	2383.33
936.0000      	10683.8    	2410.33
936.5000      	10678.1    	2436
937.0000      	10672.4    	2462.33
937.5000      	10666.7    	2462
938.0000      	10661    	2481.67
938.5000      	10655.3    	2481.33
939.0000      	10649.6    	2478
939.5000      	10644    	2407.33
940.0000      	10638.3    	2376
940.5000      	10632.6    	2366.33
941.0000      	10627    	2352.67
941.5000      	10621.3    	2369.67
942.0000      	10615.7    	2392
942.5000      	10610.1    	2543
943.0000      	10604.5    	2568
943.5000      	10598.8    	2522
944.0000      	10593.2    	2494.33
944.5000      	10587.6    	2458.33
945.0000      	10582    	2435.67
945.5000      	10576.4    	2410.67
946.0000      	10570.8    	2377.67
946.5000      	10565.2    	2373.67
947.0000      	10559.7    	2386.67
947.5000      	10554.1    	2400.67
948.0000      	10548.5    	2430
948.5000      	10543    	2477.33
949.0000      	10537.4    	2520.67
949.5000      	10531.9    	2518.33
950.0000      	10526.3    	2470
950.5000      	10520.8    	2442.33
951.0000      	10515.2    	2405.67
951.5000      	10509.7    	2403.67
952.0000      	10504.2    	2428.67
952.5000      	10498.7    	2535.67
953.0000      	10493.2    	2526.33
953.5000      	10487.7    	2515.67
954.0000      	10482.2    	2521
954.5000      	10476.7    	2534.67
955.0000      	10471.2    	2499.67
955.5000      	10465.7    	2471.33
956.0000      	10460.3    	2436.33
956.5000      	10454.8    	2436.33
957.0000      	10449.3    	2456
957.5000      	10443.9    	2477
958.0000      	10438.4    	2480.67
958.5000      	10433    	2475.67
959.0000      	10427.5    	2458.33
959.5000      	10422.1    	2439.33
960.0000      	10416.7    	2428.33
960.5000      	10411.2    	2420
961.0000      	10405.8    	2430.33
961.5000      	10400.4    	2429
962.0000      	10395    	2425.67
962.5000      	10389.6    	2407.67
963.0000      	10384.2    	2430.33
963.5000      	10378.8    	2443.33
964.0000      	10373.4    	2471
964.5000      	10368.1    	2468.33
965.0000      	10362.7    	2451.67
965.5000      	10357.3    	2430
966.0000      	10352    	2350.67
966.5000      	10346.6    	2342.67
967.0000      	10341.3    	2376.33
967.5000      	10335.9    	2414.33
968.0000      	10330.6    	2450.33
968.5000      	10325.2    	2461.67
969.0000      	10319.9    	2451.33
969.5000      	10314.6    	2457.67
970.0000      	10309.3    	2471.33
970.5000      	10304    	2455
971.0000      	10298.7    	2440
971.5000      	10293.4    	2426.67
972.0000      	10288.1    	2421.33
972.5000      	10282.8    	2408.67
973.0000      	10277.5    	2426.67
973.5000      	10272.2    	2428
974.0000      	10266.9    	2449.33
974.5000      	10261.7    	2487.33
975.0000      	10256.4    	2505.67
975.5000      	10251.2    	2509
976.0000      	10245.9    	2454.33
976.5000      	10240.7    	2450
977.0000      	10235.4    	2453.33
977.5000      	10230.2    	2452.67
978.0000      	10224.9    	2441.33
978.5000      	10219.7    	2449.33
979.0000      	10214.5    	2464.33
979.5000      	10209.3    	2459.67
980.0000      	10204.1    	2470.33
980.5000      	10198.9    	2482.67
981.0000      	10193.7    	2483.33
981.5000      	10188.5    	2467
982.0000      	10183.3    	2450
982.5000      	10178.1    	2436.33
983.0000      	10172.9    	2437.67
983.5000      	10167.8    	2484
984.0000      	10162.6    	2503.67
984.5000      	10157.4    	2525
985.0000      	10152.3    	2518.33
985.5000      	10147.1    	2558
986.0000      	10142    	2530.67
986.5000      	10136.8    	2484
987.0000      	10131.7    	2460
987.5000      	10126.6    	2442
988.0000      	10121.5    	2423
988.5000      	10116.3    	2429.33
989.0000      	10111.2    	2483.33
989.5000      	10106.1    	2480.33
990.0000      	10101    	2451.33
990.5000      	10095.9    	2457.33
991.0000      	10090.8    	2477
991.5000      	10085.7    	2479.67
992.0000      	10080.6    	2463
992.5000      	10075.6    	2404.67
993.0000      	10070.5    	2362
993.5000      	10065.4    	2345.67
994.0000      	10060.4    	2389.33
994.5000      	10055.3    	2454.67
995.0000      	10050.3    	2507.33
995.5000      	10045.2    	2503
996.0000      	10040.2    	2499.67
996.5000      	10035.1    	2483
997.0000      	10030.1    	2456.33
997.5000      	10025.1    	2423.67
998.0000      	10020    	2415.67
998.5000      	10015    	2396.67
999.0000      	10010    	2386.33
999.5000      	10005    	2420.67
1000     	10000    	2468