File: DS43_linears_2018-05-29.csv
DS43,,DS43_PL1,,DS43_PLE_490,,DS43_PLE_500,,DS43_PLE_510,,DS43_PLE_520,,DS43_PLE_530,
Wavelength (nm),Abs,Wavelength (nm),Intensity (a.u.),Wavelength (nm),Intensity (a.u.),Wavelength (nm),Intensity (a.u.),Wavelength (nm),Intensity (a.u.),Wavelength (nm),Intensity (a.u.),Wavelength (nm),Intensity (a.u.)
750,0.007411284,460,0.177312,350,32.1596,350,162.963,350,472.988,350,224.532,350,62.6579
749.5,0.006690662,460.44,0.28767,350.46,31.7575,350.46,162.021,350.46,470.125,350.46,223.496,350.46,63.2179
749,0.007251955,461.04,0.168194,351.07,31.2852,351.07,159.993,351.07,471.262,351.07,222.858,351.07,63.3829
748.5,0.005650385,461.49,0.200088,351.53,31.0803,351.53,159.156,351.53,467.943,351.53,222.905,351.53,62.0585
748,0.007250218,461.94,0.200417,352,31.2451,352,156.936,352,462.105,352,221.187,352,62.8898
747.5,0.006916428,462.53,0.139878,352.46,31.0203,352.46,157.861,352.46,464.733,352.46,219.819,352.46,63.1319
747,0.007594089,462.98,0.210907,353.07,30.5799,353.07,157.153,353.07,460.629,353.07,217.236,353.07,62.4746
746.5,0.006932894,463.43,0.260088,353.53,30.6481,353.53,156.377,353.53,461.248,353.53,216.645,353.53,62.0928
746,0.007701106,464.02,0.257939,354,31.3052,354,156.157,354,454.885,354,216.829,354,60.9191
745.5,0.007575571,464.47,0.274009,354.46,30.2724,354.46,156.264,354.46,452.525,354.46,214.658,354.46,60.7606
745,0.007865002,465.07,0.341163,355.07,30.3455,355.07,154.354,355.07,449.27,355.07,215.348,355.07,61.749
744.5,0.008327744,465.52,0.432961,355.53,30.5259,355.53,155.148,355.53,451.044,355.53,212.277,355.53,60.2584
744,0.006758701,465.97,0.335591,356,29.979,356,153.659,356,446.968,356,211.097,356,60.1349
743.5,0.007104341,466.56,0.323969,356.46,30.169,356.46,150.981,356.46,446.306,356.46,210.423,356.46,60.109
743,0.00755139,467.01,0.341671,357.07,29.5993,357.07,151.686,357.07,444.975,357.07,210.761,357.07,60.2258
742.5,0.007206289,467.46,0.422149,357.53,28.9323,357.53,151.741,357.53,443.99,357.53,209.566,357.53,59.4902
742,0.007498635,468.05,0.515506,358,30.0029,358,150.344,358,446.896,358,210.416,358,59.4965
741.5,0.006751865,468.5,0.580312,358.46,29.5761,358.46,150.195,358.46,443.364,358.46,207.958,358.46,59.4014
741,0.007078108,468.95,0.456584,359.07,29.2052,359.07,148.839,359.07,434.421,359.07,205.743,359.07,59.382
740.5,0.007094658,469.55,0.486301,359.53,29.1999,359.53,146.624,359.53,432.153,359.53,202.52,359.53,58.578
740,0.006945387,470,0.639925,360,28.4841,360,146.391,360,424.738,360,200.359,360,57.8794
739.5,0.006415805,470.45,0.766093,360.46,29.0132,360.46,145.042,360.46,423.63,360.46,198.465,360.46,57.4553
739,0.006760673,471.06,0.647819,361.07,28.4844,361.07,143.769,361.07,418.753,361.07,197.584,361.07,56.4041
738.5,0.006803978,471.51,0.851725,361.53,27.9108,361.53,143.997,361.53,421.013,361.53,198.402,361.53,56.7437
738,0.007093895,471.96,0.894245,362,28.4798,362,143.877,362,420.241,362,198.071,362,56.4898
737.5,0.005818231,472.57,0.9381724,362.46,28.0073,362.46,144.023,362.46,418.513,362.46,199.481,362.46,56.5015
737,0.006187725,473.03,0.887547,363.07,27.8877,363.07,142.788,363.07,412.818,363.07,197.047,363.07,55.512
736.5,0.007010282,473.48,1.09417,363.53,27.6803,363.53,140.382,363.53,409.257,363.53,195.163,363.53,55.2396
736,0.00715597,473.93,1.33269,364,26.841,364,137.67,364,404.285,364,190.918,364,54.3089
735.5,0.00676154,474.54,1.28065,364.46,27.4372,364.46,136.991,364.46,396.593,364.46,190.245,364.46,54.2033
735,0.007513489,475,1.40028,365.07,25.8001,365.07,135.242,365.07,393.428,365.07,186.051,365.07,52.8465
734.5,0.006746528,475.45,1.47365,365.53,26.2832,365.53,133.811,365.53,391.867,365.53,185.94,365.53,53.0346
734,0.007809362,476.06,1.75857,366,25.7417,366,131.299,366,387.667,366,184.128,366,52.0111
733.5,0.007288913,476.51,1.85519,366.46,25.9555,366.46,131.938,366.46,380.456,366.46,182.415,366.46,52.0822
733,0.007238742,476.96,2.08886,367.07,25.0978,367.07,129.592,367.07,378.97,367.07,179.055,367.07,51.7535
732.5,0.007642457,477.57,2.22266,367.53,24.9255,367.53,129.261,367.53,376.361,367.53,179.385,367.53,51.1384
732,0.007569645,478.03,2.20778,368,25.6736,368,127.43,368,375.425,368,177.492,368,50.1285
731.5,0.007823383,478.48,2.39153,368.46,25.2174,368.46,126.482,368.46,371.413,368.46,175.133,368.46,50.0403
731,0.00755945,478.93,2.98348,369.07,24.6105,369.07,124.376,369.07,361.681,369.07,173.854,369.07,49.0101
730.5,0.006856229,479.54,2.94611,369.53,23.9386,369.53,123.715,369.53,363.402,369.53,171.338,369.53,48.3092
730,0.007158733,480,3.28947,370,24.4602,370,122.163,370,356.151,370,169.459,370,48.0692
729.5,0.00644494,480.44,3.41417,370.46,24.2025,370.46,122.107,370.46,355.446,370.46,169.11,370.46,48.228
729,0.006740665,481.04,4.04854,371.07,23.9475,371.07,121.181,371.07,353.387,371.07,169.368,371.07,48.7589
728.5,0.007271276,481.49,4.07864,371.53,23.7818,371.53,119.835,371.53,351.404,371.53,166.714,371.53,47.4049
728,0.007148865,481.94,4.56823,372,24.2091,372,120.112,372,348.989,372,167.725,372,47.2022
727.5,0.007653681,482.53,5.11867,372.46,23.6828,372.46,118.822,372.46,348.972,372.46,164.674,372.46,46.6816
727,0.007040984,482.98,5.61235,373.07,23.7447,373.07,119.302,373.07,346.415,373.07,164.718,373.07,47.2353
726.5,0.00763047,483.43,6.06927,373.53,23.2414,373.53,118.806,373.53,342.059,373.53,162.881,373.53,46.7149
726,0.006923767,484.02,6.602,374,23.2053,374,116.599,374,340.439,374,160.7,374,45.9968
725.5,0.007074266,484.47,7.16157,374.46,22.9895,374.46,117.542,374.46,338.434,374.46,160.049,374.46,45.9207
725,0.007205605,485.07,7.89575,375.07,22.9232,375.07,116.043,375.07,335.95,375.07,159.423,375.07,45.225
724.5,0.007426294,485.52,8.5588,375.53,22.9258,375.53,114.821,375.53,332.61,375.53,159.488,375.53,45.2244
724,0.007649544,485.97,9.62484,376,22.9188,376,114.134,376,331.076,376,155.233,376,44.3076
723.5,0.007752174,486.56,10.3807,376.46,22.6426,376.46,113.768,376.46,328.561,376.46,156.145,376.46,44.3397
723,0.00755837,487.01,11.5746,377.07,22.4933,377.07,114.832,377.07,330.472,377.07,156.133,377.07,44.622
722.5,0.008056543,487.46,12.1598,377.53,22.4155,377.53,112.951,377.53,329.959,377.53,155.281,377.53,45.098
722,0.006744714,488.05,13.75,378,22.6448,378,114.636,378,331.662,378,157.721,378,44.7303
721.5,0.006979057,488.5,14.5528,378.46,22.3144,378.46,112.561,378.46,331.815,378.46,155.901,378.46,44.1255
721,0.007505429,488.95,15.3975,379.07,22.4466,379.07,110.684,379.07,325.001,379.07,154.266,379.07,44.2376
720.5,0.007323557,489.55,17.8872,379.53,22.9165,379.53,110.427,379.53,325.509,379.53,153.109,379.53,43.8514
720,0.007760317,490,18.7701,380,22.0544,380,110.485,380,320.85,380,151.134,380,43.3652
719.5,0.007087712,490.44,20.4445,380.46,21.8298,380.46,109.472,380.46,319.463,380.46,151.699,380.46,43.2844
719,0.007404017,491.04,22.7172,381.07,21.8264,381.07,109.226,381.07,316.5,381.07,150.018,381.07,42.9198
718.5,0.007750619,491.49,24.2719,381.53,21.576,381.53,110.336,381.53,314.737,381.53,149.821,381.53,42.039
718,0.006783126,491.94,26.7414,382,21.8634,382,108.768,382,311.957,382,147.743,382,42.6743
717.5,0.007578548,492.53,29.3941,382.46,21.461,382.46,109.213,382.46,313.014,382.46,148.003,382.46,42.3727
717,0.00734604,492.98,31.9867,383.07,22.0947,383.07,106.792,383.07,311.39,383.07,147.217,383.07,42.5619
716.5,0.00664658,493.43,34.114,383.53,21.1009,383.53,107.842,383.53,312.624,383.53,146.196,383.53,42.3841
716,0.006981267,494.02,38.1086,384,21.9774,384,106.503,384,308.143,384,146.116,384,41.5665
715.5,0.006778552,494.47,39.9415,384.46,21.3771,384.46,107.131,384.46,308.722,384.46,146.875,384.46,42.5379
715,0.006853178,495.07,43.4287,385.07,20.86903,385.07,106.349,385.07,307.771,385.07,144.527,385.07,41.1102
714.5,0.006659828,495.52,47.313,385.53,21.0223,385.53,106.886,385.53,305.745,385.53,144.887,385.53,41.622
714,0.006831404,495.97,50.412,386,20.4643,386,104.93,386,305.713,386,144.018,386,40.7978
713.5,0.006989684,496.56,55.176,386.46,20.5612,386.46,104.449,386.46,304.023,386.46,142.383,386.46,40.5001
713,0.007002522,497.01,59.3024,387.07,20.2,387.07,105.025,387.07,300.009,387.07,143.498,387.07,40.7312
712.5,0.007127392,497.46,63.9921,387.53,20.4095,387.53,104.181,387.53,301.126,387.53,142.408,387.53,41.1287
712,0.007377371,498.05,70.3163,388,20.5172,388,103.279,388,299.471,388,142.593,388,40.7836
711.5,0.007631735,498.5,75.32444,388.46,20.3087,388.46,104.033,388.46,298.159,388.46,141.112,388.46,40.176
711,0.007674969,498.95,81.5452,389.07,20.2671,389.07,104.092,389.07,298.833,389.07,141.864,389.07,40.8867
710.5,0.007375764,499.55,87.3723,389.53,19.9504,389.53,102.477,389.53,295.632,389.53,141.009,389.53,40.9346
710,0.007905755,500,95.4256,390,20.0808,390,101.575,390,294.647,390,139.106,390,39.8057
709.5,0.007749012,500.44,102.427,390.45,20.1483,390.45,101.153,390.45,291.556,390.45,137.374,390.45,39.0843
709,0.007094921,501.04,110.819,391.06,20.2964,391.06,102.155,391.06,291.131,391.06,136.557,391.06,39.4561
708.5,0.007275566,501.49,119.758,391.51,19.818,391.51,101.415,391.51,290.438,391.51,138.629,391.51,38.7695
708,0.007451047,501.94,126.847,391.96,20.296,391.96,101.053,391.96,292.814,391.96,138.32,391.96,39.329
707.5,0.00743738,502.53,140.02,392.57,20.2116,392.57,100.305,392.57,291.066,392.57,137.19,392.57,39.0402
707,0.007661163,502.98,148.742,393.03,19.8889,393.03,101.562,393.03,289.695,393.03,137.071,393.03,38.4959
706.5,0.006722472,503.43,159.467,393.48,20.0852,393.48,99.5345,393.48,287.122,393.48,136.057,393.48,39.1692
706,0.006671394,504.02,170.47,393.93,19.6005,393.93,100.368,393.93,285.72,393.93,134.962,393.93,38.5788
705.5,0.007378687,504.47,180.466,394.54,19.7657,394.54,99.3793,394.54,285.334,394.54,134.62,394.54,38.5816
705,0.006695736,505.07,196.119,395,19.6821,395,100.485,395,286.43,395,135.333,395,38.5988
704.5,0.007374869,505.52,204.473,395.45,19.6259,395.45,99.0939,395.45,287.633,395.45,135.501,395.45,38.3866
704,0.007826941,505.97,217.418,396.06,19.6384,396.06,98.0891,396.06,282.297,396.06,134.803,396.06,38.5389
703.5,0.007198841,506.56,227.336,396.51,19.5736,396.51,96.4994,396.51,282.752,396.51,134.978,396.51,37.9914
703,0.007144496,507.01,237.495,396.96,19.1172,396.96,98.2831,396.96,280.532,396.96,134.053,396.96,37.667
702.5,0.006711588,507.46,248.92,397.57,19.4953,397.57,97.0486,397.57,279.152,397.57,133.234,397.57,36.8987
702,0.007392379,508.05,255.883,398.03,19.2139,398.03,96.3705,398.03,277.44,398.03,131.171,398.03,36.8217
701.5,0.006678071,508.5,264.167,398.48,18.6441,398.48,96.828,398.48,277.377,398.48,131.382,398.48,37.9397
701,0.006659355,508.95,265.971,398.93,19.1262,398.93,95.783,398.93,278.71,398.93,130.318,398.93,37.3457
700.5,0.007477329,509.55,271.145,399.54,18.9237,399.54,96.0765,399.54,276.275,399.54,131.08,399.54,37.8478
700,0.007263985,510,275.842,400,18.6246,400,96.2537,400,277.01,400,130.495,400,37.0168
699.5,0.007724663,510.44,276.982,400.46,18.5864,400.46,95.6078,400.46,274.119,400.46,130.322,400.46,37.4833
699,0.007159812,511.04,274.352,401.07,19.0716,401.07,94.175,401.07,274.435,401.07,129.235,401.07,37.2743
698.5,0.006490474,511.49,275.064,401.53,18.1557,401.53,95.0502,401.53,275.002,401.53,129.017,401.53,36.2309
698,0.007172655,511.94,270.685,402,18.9506,402,94.7297,402,271.976,402,128.895,402,36.2087
697.5,0.007180471,512.53,265.978,402.46,18.418,402.46,93.5772,402.46,271.234,402.46,127.482,402.46,36.5279
697,0.007827995,512.98,259.49,403.07,18.0671,403.07,92.7632,403.07,270.219,403.07,127.13,403.07,35.5637
696.5,0.007608209,513.43,249.879,403.53,18.506,403.53,93.0825,403.53,268.946,403.53,127.769,403.53,36.6161
696,0.006717214,514.02,239.752,404,18.4312,404,92.3062,404,267.767,404,126.461,404,36.2168
695.5,0.007001891,514.47,230.516,404.46,18.5242,404.46,92.6134,404.46,268.904,404.46,126.543,404.46,36.9333
695,0.006625789,515.07,221.232,405.07,18.372,405.07,93.0981,405.07,269.58,405.07,127.593,405.07,36.3096
694.5,0.007814554,515.52,210.727,405.53,17.9773,405.53,92.6587,405.53,269.18,405.53,126.016,405.53,36.6669
694,0.007282674,515.97,202.835,406,18.0009,406,91.9159,406,266.42,406,125.421,406,36.392
693.5,0.007669515,516.56,193.19,406.46,18.1161,406.46,91.2802,406.46,264.015,406.46,125.695,406.46,35.6104
693,0.007253113,517.01,181.966,407.07,18.0389,407.07,89.9945,407.07,263.152,407.07,124.118,407.07,35.074
692.5,0.007393879,517.46,175.091,407.53,17.4584,407.53,89.4664,407.53,260.191,407.53,123.685,407.53,35.0751
692,0.007088895,518.05,160.714,408,17.2174,408,89.1564,408,258.805,408,122.059,408,34.6342
691.5,0.00761685,518.5,156.865,408.46,17.8283,408.46,89.2734,408.46,256.408,408.46,120.831,408.46,34.79
691,0.007344197,518.95,147.239,409.07,17.4715,409.07,88.7583,409.07,253.572,409.07,119.689,409.07,34.0981
690.5,0.007938999,519.55,137.874,409.53,17.5369,409.53,87.9144,409.53,254.598,409.53,118.876,409.53,34.2845
690,0.006951463,520,132.553,410,16.9109,410,86.6546,410,253.437,410,119.47,410,34.5145
689.5,0.007561242,520.44,123.419,410.45,17.0792,410.45,86.6986,410.45,252.502,410.45,119.057,410.45,33.9404
689,0.007057691,521.02,117.179,411.06,16.9702,411.06,86.5328,411.06,249.743,411.06,117.967,411.06,33.8616
688.5,0.007054402,521.47,108.711,411.51,17.0937,411.51,85.1303,411.51,247.064,411.51,116.218,411.51,33.7251
688,0.007544252,522.05,102.133,411.96,16.5161,411.96,84.3834,411.96,245.144,411.96,116.497,411.96,33.0223
687.5,0.007001917,522.5,96.2139,412.57,16.6272,412.57,83.4656,412.57,242.882,412.57,114.045,412.57,32.9027
687,0.006892337,522.94,90.7703,413.03,16.5068,413.03,82.9516,413.03,238.551,413.03,113.252,413.03,31.9952
686.5,0.007724979,523.52,84.838,413.48,16.1105,413.48,82.646,413.48,238.72,413.48,112.276,413.48,32.5864
686,0.008137956,523.97,80.022,413.93,16.5404,413.93,82.4294,413.93,235.953,413.93,112.46,413.93,32.0714
685.5,0.008090694,524.55,75.6364,414.54,16.108,414.54,80.5817,414.54,234.715,414.54,110.778,414.54,31.5853
685,0.007325504,525,70.261,415,15.9208,415,79.6503,415,234.335,415,109.601,415,31.397
684.5,0.008151119,525.44,66.8279,415.45,15.7832,415.45,79.21,415.45,230.009,415.45,109.963,415.45,30.7298
684,0.007493973,526.02,61.5016,416.06,15.9651,416.06,78.6728,416.06,227.692,416.06,107.899,416.06,31.0948
683.5,0.008076295,526.47,57.9432,416.51,15.6354,416.51,76.797,416.51,225.345,416.51,106.487,416.51,30.8747
683,0.006933314,527.05,54.6416,416.96,15.7215,416.96,76.9734,416.96,224.78,416.96,106.487,416.96,30.2922
682.5,0.007730171,527.5,51.3237,417.57,15.0723,417.57,76.228,417.57,223.323,417.57,105.224,417.57,30.1343
682,0.007375159,527.94,48.7899,418.03,15.3334,418.03,76.6403,418.03,221.092,418.03,104.722,418.03,29.8895
681.5,0.007637557,528.52,44.8689,418.48,15.1796,418.48,76.8151,418.48,221.249,418.48,104.553,418.48,29.791
681,0.007278962,528.97,42.9107,418.93,14.9143,418.93,75.8695,418.93,220.467,418.93,104.52,418.93,29.4986
680.5,0.007875809,529.55,39.5756,419.54,15.1443,419.54,74.7832,419.54,219.492,419.54,103.702,419.54,29.3778
680,0.008358539,530,37.47,420,15.0113,420,75.6458,420,217.431,420,102.229,420,29.5116
679.5,0.00750701,530.44,36.2875,420.46,14.6795,420.46,74.6883,420.46,215.252,420.46,102.52,420.46,29.0986
679,0.007351726,531.04,32.1944,421.07,14.8399,421.07,75.1923,421.07,217.841,421.07,102.286,421.07,29.328
678.5,0.008311859,531.49,31.3817,421.53,14.5,421.53,74.8681,421.53,216.255,421.53,102.293,421.53,29.2962
678,0.00760489,531.94,29.9059,422,14.437,422,74.5988,422,215.675,422,102.285,422,28.9647
677.5,0.007547203,532.53,27.9638,422.46,14.6267,422.46,73.2793,422.46,214.187,422.46,101.478,422.46,28.8783
677,0.007735414,532.98,26.1018,423.07,14.5367,423.07,73.0335,423.07,211.754,423.07,100.471,423.07,28.4057
676.5,0.006865249,533.43,25.3178,423.53,14.4916,423.53,72.7676,423.53,211.913,423.53,99.6781,423.53,28.7114
676,0.008155946,534.02,23.2068,424,14.5124,424,72.9667,424,211.102,424,100.168,424,28.656
675.5,0.00798904,534.47,22.1642,424.46,14.4126,424.46,72.799,424.46,209.971,424.46,99.9636,424.46,28.2631
675,0.007807596,535.07,20.8535,425.07,14.2639,425.07,72.7106,425.07,209.751,425.07,99.2704,425.07,28.5371
674.5,0.007421474,535.52,19.0451,425.53,14.2989,425.53,71.9538,425.53,209.33,425.53,98.9535,425.53,28.0528
674,0.008296451,535.97,18.2453,426,14.2872,426,71.5866,426,208.458,426,98.9795,426,28.4201
673.5,0.007713543,536.56,17.4335,426.46,14.267,426.46,71.7222,426.46,207.834,426.46,98.2948,426.46,28.0635
673,0.00748997,537.01,16.2668,427.07,14.2779,427.07,71.4839,427.07,206.987,427.07,98.3917,427.07,28.2073
672.5,0.008185936,537.46,15.3766,427.53,14.1379,427.53,70.4864,427.53,206.097,427.53,97.7034,427.53,27.6044
672,0.007828708,538.05,14.4561,428,14.11,428,70.4665,428,204.443,428,96.79,428,27.7991
671.5,0.007724294,538.5,13.758,428.46,14.1228,428.46,70.5618,428.46,205.349,428.46,96.8219,428.46,27.6968
671,0.006870509,538.95,13.1579,429.07,13.8706,429.07,70.2566,429.07,202.548,429.07,96.1412,429.07,27.546
670.5,0.006924687,539.55,11.4639,429.53,14.0806,429.53,69.4761,429.53,201.767,429.53,96.6287,429.53,27.371
670,0.006958224,540,11.5889,430,13.1156,430,69.6971,430,201.552,430,95.7663,430,27.1886
669.5,0.007595617,540.44,10.6652,430.45,13.7862,430.45,69.2294,430.45,202.116,430.45,94.8527,430.45,27.2731
669,0.007491787,541.02,10.0532,431.06,13.6902,431.06,69.467,431.06,200.757,431.06,95.4528,431.06,27.0537
668.5,0.007077319,541.47,9.3738,431.51,13.4609,431.51,68.8836,431.51,198.592,431.51,94.161,431.51,27.0623
668,0.006858148,542.05,8.66142,431.96,13.5515,431.96,69.3189,431.96,198.396,431.96,94.1024,431.96,27.1348
667.5,0.007557685,542.5,8.51051,432.57,13.6789,432.57,68.7677,432.57,198.757,432.57,94.0991,432.57,26.84
667,0.007407413,542.94,7.7154,433.03,13.2721,433.03,68.3111,433.03,197.799,433.03,93.7161,433.03,26.5766
666.5,0.00706169,543.52,7.27033,433.48,13.6362,433.48,67.8098,433.48,197.233,433.48,92.997,433.48,26.581
666,0.007452442,543.97,6.8981,433.93,13.3575,433.93,67.7989,433.93,195.832,433.93,94.5098,433.93,26.6102
665.5,0.006834901,544.55,6.60861,434.54,13.4265,434.54,67.7251,434.54,196.256,434.54,93.3661,434.54,26.6463
665,0.008149509,545,6.10064,435,13.4002,435,67.3999,435,195.29,435,93.1656,435,26.6201
664.5,0.007670068,545.44,6.04936,435.45,13.5362,435.45,66.6833,435.45,195.882,435.45,92.57,435.45,26.0888
664,0.006797089,546.02,5.34865,436.06,13.3827,436.06,66.693,436.06,194.731,436.06,92.1757,436.06,26.3078
663.5,0.00728141,546.47,5.3708,436.51,13.3689,436.51,66.1444,436.51,194.766,436.51,91.6465,436.51,26.1555
663,0.008059971,547.05,4.90775,436.96,12.992,436.96,66.5694,436.96,192.899,436.96,91.3487,436.96,26.3597
662.5,0.006922241,547.5,4.66284,437.57,13.3001,437.57,66.1212,437.57,192.697,437.57,91.7661,437.57,26.0728
662,0.007863895,547.94,4.30433,438.03,13.0525,438.03,65.7155,438.03,192.163,438.03,90.5661,438.03,26.1898
661.5,0.007849055,548.52,4.07548,438.48,13.2078,438.48,66.0538,438.48,191.423,438.48,90.8565,438.48,25.814
661,0.007129944,548.97,3.78847,438.93,12.8362,438.93,66.382,438.93,191.077,438.93,90.3053,438.93,25.9173
660.5,0.007435273,549.55,3.65606,439.54,13.4599,439.54,65.6151,439.54,190.568,439.54,89.1719,439.54,25.5323
660,0.007141207,550,3.53336,440,13.0654,440,64.6793,440,190.417,440,91.2239,440,25.7555
659.5,0.00630674,550.44,3.15252,440.45,13.0357,440.45,66.111,440.45,190.808,440.45,90.3199,440.45,26.0301
659,0.006383019,551.04,2.79149,441.06,13.2736,441.06,65.6497,441.06,190.726,441.06,90.3212,441.06,25.8266
658.5,0.007356913,551.49,2.84293,441.51,13.0135,441.51,65.7835,441.51,191.203,441.51,89.4118,441.51,25.886
658,0.006230632,551.94,2.69578,441.96,12.8124,441.96,65.1443,441.96,190.563,441.96,90.4517,441.96,25.6151
657.5,0.006795984,552.53,2.60388,442.57,12.8974,442.57,65.2007,442.57,189.225,442.57,89.9154,442.57,25.4643
657,0.006904304,552.98,2.49349,443.03,13.0601,443.03,64.4651,443.03,189.424,443.03,89.5471,443.03,25.6751
656.5,0.006586575,553.43,2.23831,443.48,12.7083,443.48,64.3544,443.48,187.977,443.48,89.0277,443.48,25.3661
656,0.006960643,554.02,2.25289,443.93,12.6789,443.93,64.8234,443.93,187.59,443.93,88.6116,443.93,25.4272
655.5,0.006643899,554.47,2.04745,444.54,12.7166,444.54,64.4285,444.54,187.942,444.54,88.8373,444.54,25.3542
655,0.00737379,555.07,1.8399,445,12.6046,445,63.9091,445,186.592,445,89.1773,445,25.3884
654.5,0.006299623,555.52,1.72991,445.45,12.7444,445.45,64.1721,445.45,185.546,445.45,88.8352,445.45,25.5069
654,0.008128382,555.97,1.61462,446.06,13.0217,446.06,63.8843,446.06,186.33,446.06,88.7338,446.06,25.4261
653.5,0.0068374,556.56,1.55348,446.51,12.7679,446.51,64.2278,446.51,185.881,446.51,88.5764,446.51,25.2775
653,0.008308772,557.01,1.60712,446.96,12.8291,446.96,64.7074,446.96,187.035,446.96,88.6672,446.96,25.3676
652.5,0.007248112,557.46,1.36377,447.57,12.6303,447.57,64.0764,447.57,187.077,447.57,88.6051,447.57,25.4839
652,0.007270539,558.05,1.38856,448.03,12.597,448.03,64.3945,448.03,187.424,448.03,88.6541,448.03,25.8161
651.5,0.007027172,558.5,1.25118,448.48,12.6694,448.48,64.1722,448.48,187.052,448.48,89.658,448.48,25.7759
651,0.006998261,558.95,1.29652,448.93,12.4716,448.93,64.2784,448.93,187.347,448.93,89.0979,448.93,25.1493
650.5,0.007430085,559.55,1.19533,449.54,12.7881,449.54,62.8521,449.54,186.191,449.54,88.2052,449.54,25.4332
650,0.007124313,560,1.08611,450,12.527,450,64.2871,450,184.843,450,87.6823,450,25.1287
649.5,0.007011651,560.44,1.15315,450.45,12.4155,450.45,64.1723,450.45,184.103,450.45,87.8771,450.45,25.2402
649,0.006971376,561.02,1.0012,451.06,12.7002,451.06,63.2353,451.06,184.615,451.06,88.2826,451.06,24.8532
648.5,0.006790936,561.47,1.08139,451.51,12.4018,451.51,63.329,451.51,184.432,451.51,87.8173,451.51,24.3357
648,0.007753386,562.05,0.795101,451.96,12.4499,451.96,62.7964,451.96,185.433,451.96,87.2139,451.96,25.3754
647.5,0.007867243,562.5,0.812207,452.57,12.3762,452.57,63.0149,452.57,187.428,452.57,87.9904,452.57,25.4987
647,0.007935413,562.94,0.752836,453.03,12.5261,453.03,64.1737,453.03,185.709,453.03,87.9779,453.03,24.9619
646.5,0.007094053,563.52,0.622862,453.48,12.5566,453.48,63.813,453.48,185.005,453.48,88.2238,453.48,25.2302
646,0.009166979,563.97,0.649232,453.93,12.4124,453.93,63.4162,453.93,184.696,453.93,87.2053,453.93,25.6245
645.5,0.00720142,564.55,0.660679,454.54,12.4645,454.54,63.4498,454.54,184.144,454.54,87.4559,454.54,25.114
645,0.007770278,565,0.621968,455,12.2621,455,63.1972,455,186.204,455,88.1085,455,25.2062
644.5,0.007849214,565.44,0.601589,455.45,12.3175,455.45,62.7538,455.45,183.765,455.45,88.1716,455.45,25.4932
644,0.007190103,566.02,0.682178,456.06,12.0893,456.06,63.2643,456.06,184.979,456.06,87.4614,456.06,25.0503
643.5,0.007494157,566.47,0.504879,456.51,12.3935,456.51,62.7207,456.51,183.999,456.51,87.6157,456.51,25.0106
643,0.008131521,567.05,0.589659,456.96,12.6354,456.96,62.2886,456.96,184.451,456.96,87.3034,456.96,24.9839
642.5,0.007533348,567.5,0.404568,457.57,12.1853,457.57,63.4064,457.57,183.387,457.57,87.0011,457.57,24.8358
642,0.007946934,567.94,0.400822,458.03,12.1887,458.03,62.288,458.03,182.842,458.03,85.7175,458.03,24.5907
641.5,0.007586793,568.52,0.325882,458.48,12.0206,458.48,62.5769,458.48,182.697,458.48,86.1978,458.48,25.0789
641,0.007464609,568.97,0.337082,458.93,12.2007,458.93,62.7612,458.93,181.952,458.93,87.2022,458.93,25.0814
640.5,0.007648333,569.55,0.454724,459.54,12.16784,459.54,62.5173,459.54,184.724,459.54,87.8997,459.54,24.9456
640,0.007063058,570,0.394494,460,12.2834,460,62.7238,460,183.496,460,88.3986,460,25.1777
639.5,0.006954936,570.43,0.357489,460.44,12.4757,460.44,63.6121,460.44,185.245,460.44,87.7627,460.44,25.395
639,0.008475907,571.01,0.247074,461.04,12.5043,461.04,63.8274,461.04,184.851,461.04,88.2845,461.04,25.1061
638.5,0.007988459,571.44,0.236363,461.49,12.2074,461.49,63.3174,461.49,185.871,461.49,87.459,461.49,25.2724
638,0.007265853,572.02,0.162847,461.94,12.2882,461.94,63.9936,461.94,184.639,461.94,88.5536,461.94,25.0282
637.5,0.007918857,572.46,0.288401,462.53,12.333,462.53,63.1482,462.53,182.876,462.53,87.941,462.53,24.948
637,0.006845052,573.04,0.376506,462.98,12.2606,462.98,62.6998,462.98,184.814,462.98,87.2189,462.98,25.3634
636.5,0.00773971,573.47,0.326641,463.43,12.152,463.43,62.8295,463.43,184.899,463.43,86.727,463.43,25.2665
636,0.007585897,574.05,0.264018,464.02,12.1944,464.02,61.9522,464.02,184.365,464.02,87.5896,464.02,25.0731
635.5,0.006587547,574.49,0.274371,464.47,12.1517,464.47,62.7255,464.47,183.374,464.47,87.5891,464.47,24.7755
635,0.007323451,575.07,0.232688,465.07,12.4293,465.07,62.8816,465.07,183.248,465.07,86.9896,465.07,24.6456
634.5,0.007151049,575.5,0.213293,465.52,12.2781,465.52,63.7504,465.52,183.64,465.52,87.0295,465.52,25.1502
634,0.007827785,575.94,0.177124,465.97,12.1845,465.97,62.6588,465.97,183.214,465.97,87.8376,465.97,24.9116
633.5,0.007448703,576.52,0.296451,466.56,11.9803,466.56,61.8742,466.56,185.088,466.56,87.3398,466.56,25.4186
633,0.0081004,576.95,0.17268,467.01,12.239,467.01,61.6323,467.01,183.524,467.01,86.8244,467.01,24.4106
632.5,0.008553782,577.53,0.245341,467.46,11.9158,467.46,62.4658,467.46,184.22,467.46,88.1992,467.46,24.432
632,0.008617809,577.97,0.0603336,468.05,11.7171,468.05,61.6859,468.05,183.774,468.05,87.332,468.05,24.7488
631.5,0.008158715,578.55,0.173074,468.5,12.0995,468.5,61.7392,468.5,183.077,468.5,87.2474,468.5,25.0417
631,0.007277041,578.98,0.293412,468.95,11.8587,468.95,62.7613,468.95,181.649,468.95,86.6526,468.95,24.5476
630.5,0.007837273,579.56,0.205867,469.55,11.6856,469.55,61.9526,469.55,182.544,469.55,86.7182,469.55,24.9482
630,0.008262151,580,0.250203,470,12.3753,470,62.485,470,182.559,470,86.2007,470,24.7654
629.5,0.008536992,,,,,470.45,61.7028,470.45,179.757,470.45,86.3007,470.45,24.7425
629,0.007912662,,,,,471.06,62.828,471.06,181.373,471.06,86.4654,471.06,25.0551
628.5,0.007780714,,,,,471.51,62.0235,471.51,183.891,471.51,87.1948,471.51,24.2097
628,0.007840727,,,,,471.96,61.5705,471.96,181.893,471.96,85.3336,471.96,24.7301
627.5,0.007513963,,,,,472.57,61.6744,472.57,182.082,472.57,86.1055,472.57,24.7648
627,0.007959905,,,,,473.03,60.7676,473.03,181.57,473.03,86.4782,473.03,24.3361
626.5,0.006825987,,,,,473.48,61.1816,473.48,180.332,473.48,86.3573,473.48,24.4447
626,0.007864607,,,,,473.93,61.9044,473.93,180.297,473.93,86.0595,473.93,24.3136
625.5,0.007530029,,,,,474.54,60.631,474.54,179.706,474.54,85.7621,474.54,24.6212
625,0.007883507,,,,,475,61.1845,475,179.871,475,85.9214,475,24.9418
624.5,0.007876838,,,,,475.45,60.1637,475.45,178.947,475.45,85.5289,475.45,24.4172
624,0.008770033,,,,,476.06,60.7282,476.06,179.917,476.06,85.3363,476.06,24.7494
623.5,0.007026014,,,,,476.51,60.7786,476.51,178.213,476.51,85.4708,476.51,24.5059
623,0.008059602,,,,,476.96,60.563,476.96,177.921,476.96,84.5074,476.96,24.5901
622.5,0.007343776,,,,,477.57,59.9659,477.57,178.26,477.57,85.2673,477.57,24.6449
622,0.007904543,,,,,478.03,59.5995,478.03,179.621,478.03,85.8045,478.03,24.5504
621.5,0.007842124,,,,,478.48,60.0668,478.48,177.702,478.48,84.6306,478.48,24.1632
621,0.009126266,,,,,478.93,60.362,478.93,178.341,478.93,85.2895,478.93,24.1728
620.5,0.007411363,,,,,479.54,59.8494,479.54,177.259,479.54,84.4834,479.54,24.0007
620,0.007707694,,,,,480,60.4096,480,176.504,480,83.7487,480,24.0542
619.5,0.007224503,,,,,480.45,60.7751,480.45,175.622,480.45,83.0048,480.45,23.7821
619,0.007609553,,,,,481.06,60.0204,481.06,175.602,481.06,83.1765,481.06,24.0689
618.5,0.007922152,,,,,481.51,59.4755,481.51,175.535,481.51,82.6002,481.51,23.9452
618,0.007485809,,,,,481.96,58.6573,481.96,172.749,481.96,82.8899,481.96,23.6106
617.5,0.007846604,,,,,482.57,59.9175,482.57,173.107,482.57,82.3964,482.57,23.9286
617,0.008005097,,,,,483.03,59.3049,483.03,173.168,483.03,81.7289,483.03,23.2125
616.5,0.007527632,,,,,483.48,60.0279,483.48,175.752,483.48,83.5098,483.48,23.8129
616,0.007539748,,,,,483.93,60.2549,483.93,175.914,483.93,83.8652,483.93,24.0065
615.5,0.00814922,,,,,484.54,60.9698,484.54,178.412,484.54,84.4895,484.54,24.2516
615,0.007770278,,,,,485,61.4549,485,179.711,485,85.6125,485,24.4492
614.5,0.008449089,,,,,485.45,60.9947,485.45,178.363,485.45,85.1133,485.45,24.2674
614,0.008217196,,,,,486.06,59.5921,486.06,176.423,486.06,84.2051,486.06,23.8946
613.5,0.007896318,,,,,486.51,59.8371,486.51,177.18,486.51,83.6921,486.51,23.9869
613,0.00831748,,,,,486.96,60.2377,486.96,177.04,486.96,83.8191,486.96,23.8832
612.5,0.008824,,,,,487.57,60.2035,487.57,178.346,487.57,84.215,487.57,23.7612
612,0.007830447,,,,,488.03,61.0919,488.03,178.943,488.03,84.7824,488.03,23.9784
611.5,0.007901959,,,,,488.48,61.5275,488.48,179.647,488.48,85.9732,488.48,24.3256
611,0.007828971,,,,,488.93,60.8711,488.93,179.229,488.93,85.0299,488.93,24.2923
610.5,0.008059496,,,,,489.54,60.6954,489.54,178.27,489.54,84.8485,489.54,24.4135
610,0.006878477,,,,,490,59.9938,490,177.355,490,83.9411,490,23.7667
609.5,0.007131128,,,,,,,490.44,176.208,490.44,82.9192,490.44,23.9527
609,0.007903726,,,,,,,491.04,174.114,491.04,83.5705,491.04,23.6304
608.5,0.00799919,,,,,,,491.49,174.318,491.49,83.9162,491.49,24.0021
608,0.007534059,,,,,,,491.94,177.181,491.94,84.0444,491.94,24.0127
607.5,0.007310841,,,,,,,492.53,177.284,492.53,85.0415,492.53,24.1056
607,0.007605812,,,,,,,492.98,176.513,492.98,85.1571,492.98,24.3666
606.5,0.008588501,,,,,,,493.43,174.691,493.43,84.7559,493.43,24.1161
606,0.008958564,,,,,,,494.02,174.181,494.02,83.2076,494.02,24.1136
605.5,0.007994866,,,,,,,494.47,170.625,494.47,81.1107,494.47,23.3808
605,0.008175122,,,,,,,495.07,169.049,495.07,80.7188,495.07,23.2395
604.5,0.008855042,,,,,,,495.52,166.145,495.52,80.0254,495.52,22.8222
604,0.007888173,,,,,,,495.97,164.704,495.97,80.4418,495.97,22.6524
603.5,0.007899692,,,,,,,496.56,164.136,496.56,79.8163,496.56,22.7756
603,0.008083046,,,,,,,497.01,163.833,497.01,79.3131,497.01,22.7177
602.5,0.008387674,,,,,,,497.46,164.541,497.46,78.3225,497.46,22.6883
602,0.007649544,,,,,,,498.05,163.104,498.05,78.2557,498.05,21.8872
601.5,0.007844759,,,,,,,498.5,161.724,498.5,77.5571,498.5,22.2919
601,0.007879659,,,,,,,498.95,161.627,498.95,76.6675,498.95,22.0053
600.5,0.008604924,,,,,,,499.55,161.059,499.55,77.7926,499.55,22.4501
600,0.007765456,,,,,,,500,161.497,500,78.0372,500,21.4922
599.5,0.007735651,,,,,,,,,500.44,77.2201,500.44,22.3853
599,0.008166048,,,,,,,,,501.04,77.3381,501.04,21.9411
598.5,0.008186015,,,,,,,,,501.49,76.6006,501.49,21.7059
598,0.008191344,,,,,,,,,501.94,76.3931,501.94,22.3
597.5,0.007737022,,,,,,,,,502.53,76.4317,502.53,21.7497
597,0.008561729,,,,,,,,,502.98,75.2295,502.98,21.0414
596.5,0.007632973,,,,,,,,,503.43,75.5792,503.43,21.8375
596,0.008478863,,,,,,,,,504.02,74.7554,504.02,21.3891
595.5,0.008424596,,,,,,,,,504.47,74.8365,504.47,21.5672
595,0.00834297,,,,,,,,,505.07,73.9691,505.07,21.3905
594.5,0.008440405,,,,,,,,,505.52,72.8045,505.52,21.0371
594,0.008427948,,,,,,,,,505.97,70.6747,505.97,20.4978
593.5,0.008366377,,,,,,,,,506.56,70.0928,506.56,19.9218
593,0.008306318,,,,,,,,,507.01,68.3418,507.01,19.7054
592.5,0.007767142,,,,,,,,,507.46,65.8098,507.46,18.4066
592,0.008351256,,,,,,,,,508.05,62.9438,508.05,17.9129
591.5,0.008934756,,,,,,,,,508.5,61.1194,508.5,17.2029
591,0.008634418,,,,,,,,,508.95,57.7732,508.95,17.3155
590.5,0.008578389,,,,,,,,,509.55,53.1536,509.55,15.4379
590,0.008612608,,,,,,,,,510,51.9673,510,14.8367
589.5,0.008439799,,,,,,,,,,,510.44,13.5244
589,0.008090826,,,,,,,,,,,511.04,12.6913
588.5,0.009685503,,,,,,,,,,,511.49,11.9915
588,0.008071917,,,,,,,,,,,511.94,11.4532
587.5,0.008565505,,,,,,,,,,,512.53,9.77391
587,0.008418024,,,,,,,,,,,512.98,8.9241
586.5,0.008678809,,,,,,,,,,,513.43,8.29699
586,0.00826281,,,,,,,,,,,514.02,7.2717
585.5,0.008409737,,,,,,,,,,,514.47,6.51786
585,0.008579234,,,,,,,,,,,515.07,6.14751
584.5,0.008059892,,,,,,,,,,,515.52,4.96177
584,0.009600941,,,,,,,,,,,515.97,4.90044
583.5,0.008670649,,,,,,,,,,,516.56,3.93074
583,0.008207172,,,,,,,,,,,517.01,3.30447
582.5,0.008291094,,,,,,,,,,,517.46,3.1128
582,0.00856033,,,,,,,,,,,518.05,2.4255
581.5,0.009106969,,,,,,,,,,,518.5,2.38498
581,0.008819853,,,,,,,,,,,518.95,2.23425
580.5,0.009091267,,,,,,,,,,,519.55,2.14997
580,0.007930061,,,,,,,,,,,520,1.68593
579.5,0.008625678,,,,,,,,,,,,
579,0.008415754,,,,,,,,,,,,
578.5,0.008257929,,,,,,,,,,,,
578,0.008482295,,,,,,,,,,,,
577.5,0.008208121,,,,,,,,,,,,
577,0.0094634,,,,,,,,,,,,
576.5,0.007922706,,,,,,,,,,,,
576,0.008997332,,,,,,,,,,,,
575.5,0.008794598,,,,,,,,,,,,
575,0.009207563,,,,,,,,,,,,
574.5,0.008403614,,,,,,,,,,,,
574,0.009183028,,,,,,,,,,,,
573.5,0.009022783,,,,,,,,,,,,
573,0.009294773,,,,,,,,,,,,
572.5,0.009157541,,,,,,,,,,,,
572,0.009354916,,,,,,,,,,,,
571.5,0.009057671,,,,,,,,,,,,
571,0.008708149,,,,,,,,,,,,
570.5,0.008870021,,,,,,,,,,,,
570,0.00860355,,,,,,,,,,,,
569.5,0.00920217,,,,,,,,,,,,
569,0.009088439,,,,,,,,,,,,
568.5,0.008826694,,,,,,,,,,,,
568,0.009365866,,,,,,,,,,,,
567.5,0.009101841,,,,,,,,,,,,
567,0.008657102,,,,,,,,,,,,
566.5,0.009568497,,,,,,,,,,,,
566,0.009241489,,,,,,,,,,,,
565.5,0.009342221,,,,,,,,,,,,
565,0.009029469,,,,,,,,,,,,
564.5,0.008845319,,,,,,,,,,,,
564,0.008958353,,,,,,,,,,,,
563.5,0.008237483,,,,,,,,,,,,
563,0.008014669,,,,,,,,,,,,
562.5,0.008920276,,,,,,,,,,,,
562,0.009512055,,,,,,,,,,,,
561.5,0.008840802,,,,,,,,,,,,
561,0.009596071,,,,,,,,,,,,
560.5,0.008446291,,,,,,,,,,,,
560,0.009821182,,,,,,,,,,,,
559.5,0.009310112,,,,,,,,,,,,
559,0.009340898,,,,,,,,,,,,
558.5,0.009134277,,,,,,,,,,,,
558,0.008821702,,,,,,,,,,,,
557.5,0.008828993,,,,,,,,,,,,
557,0.009610998,,,,,,,,,,,,
556.5,0.009384567,,,,,,,,,,,,
556,0.009094466,,,,,,,,,,,,
555.5,0.008405963,,,,,,,,,,,,
555,0.00886516,,,,,,,,,,,,
554.5,0.009499593,,,,,,,,,,,,
554,0.008980974,,,,,,,,,,,,
553.5,0.009034042,,,,,,,,,,,,
553,0.008649629,,,,,,,,,,,,
552.5,0.008893509,,,,,,,,,,,,
552,0.009783849,,,,,,,,,,,,
551.5,0.00872323,,,,,,,,,,,,
551,0.009787477,,,,,,,,,,,,
550.5,0.008889916,,,,,,,,,,,,
550,0.009165816,,,,,,,,,,,,
549.5,0.008799618,,,,,,,,,,,,
549,0.009143662,,,,,,,,,,,,
548.5,0.009204259,,,,,,,,,,,,
548,0.008841595,,,,,,,,,,,,
547.5,0.00943369,,,,,,,,,,,,
547,0.009466204,,,,,,,,,,,,
546.5,0.009467818,,,,,,,,,,,,
546,0.008850286,,,,,,,,,,,,
545.5,0.008707437,,,,,,,,,,,,
545,0.009168222,,,,,,,,,,,,
544.5,0.008800621,,,,,,,,,,,,
544,0.009623277,,,,,,,,,,,,
543.5,0.009156086,,,,,,,,,,,,
543,0.009128593,,,,,,,,,,,,
542.5,0.009279621,,,,,,,,,,,,
542,0.008950399,,,,,,,,,,,,
541.5,0.009214808,,,,,,,,,,,,
541,0.009144851,,,,,,,,,,,,
540.5,0.009019955,,,,,,,,,,,,
540,0.009196829,,,,,,,,,,,,
539.5,0.0102562,,,,,,,,,,,,
539,0.008971143,,,,,,,,,,,,
538.5,0.008505973,,,,,,,,,,,,
538,0.009269704,,,,,,,,,,,,
537.5,0.00985428,,,,,,,,,,,,
537,0.009866197,,,,,,,,,,,,
536.5,0.009752106,,,,,,,,,,,,
536,0.009598056,,,,,,,,,,,,
535.5,0.009448902,,,,,,,,,,,,
535,0.009060975,,,,,,,,,,,,
534.5,0.009152782,,,,,,,,,,,,
534,0.009216633,,,,,,,,,,,,
533.5,0.009139088,,,,,,,,,,,,
533,0.009683253,,,,,,,,,,,,
532.5,0.009036791,,,,,,,,,,,,
532,0.009849091,,,,,,,,,,,,
531.5,0.00877838,,,,,,,,,,,,
531,0.009464458,,,,,,,,,,,,
530.5,0.009601073,,,,,,,,,,,,
530,0.009466575,,,,,,,,,,,,
529.5,0.010034,,,,,,,,,,,,
529,0.0108326,,,,,,,,,,,,
528.5,0.009800292,,,,,,,,,,,,
528,0.009760048,,,,,,,,,,,,
527.5,0.009461653,,,,,,,,,,,,
527,0.009920989,,,,,,,,,,,,
526.5,0.009985801,,,,,,,,,,,,
526,0.009899882,,,,,,,,,,,,
525.5,0.0106986,,,,,,,,,,,,
525,0.009886535,,,,,,,,,,,,
524.5,0.009413453,,,,,,,,,,,,
524,0.009650565,,,,,,,,,,,,
523.5,0.0102753,,,,,,,,,,,,
523,0.010115,,,,,,,,,,,,
522.5,0.009097849,,,,,,,,,,,,
522,0.0101785,,,,,,,,,,,,
521.5,0.0105864,,,,,,,,,,,,
521,0.0107761,,,,,,,,,,,,
520.5,0.0112377,,,,,,,,,,,,
520,0.01050419,,,,,,,,,,,,
519.5,0.0108573,,,,,,,,,,,,
519,0.01142423,,,,,,,,,,,,
518.5,0.0121174,,,,,,,,,,,,
518,0.0115114,,,,,,,,,,,,
517.5,0.0112175,,,,,,,,,,,,
517,0.012689,,,,,,,,,,,,
516.5,0.0123678,,,,,,,,,,,,
516,0.0127517,,,,,,,,,,,,
515.5,0.0140022,,,,,,,,,,,,
515,0.01353726,,,,,,,,,,,,
514.5,0.0150345,,,,,,,,,,,,
514,0.0147169,,,,,,,,,,,,
513.5,0.0166106,,,,,,,,,,,,
513,0.0166248,,,,,,,,,,,,
512.5,0.0172144,,,,,,,,,,,,
512,0.01790284,,,,,,,,,,,,
511.5,0.0194059,,,,,,,,,,,,
511,0.02034191,,,,,,,,,,,,
510.5,0.0215584,,,,,,,,,,,,
510,0.0214999,,,,,,,,,,,,
509.5,0.0233318,,,,,,,,,,,,
509,0.0241504,,,,,,,,,,,,
508.5,0.0245126,,,,,,,,,,,,
508,0.0266451,,,,,,,,,,,,
507.5,0.0264813,,,,,,,,,,,,
507,0.0280371,,,,,,,,,,,,
506.5,0.0278641,,,,,,,,,,,,
506,0.0291365,,,,,,,,,,,,
505.5,0.0289875,,,,,,,,,,,,
505,0.0300217,,,,,,,,,,,,
504.5,0.0294203,,,,,,,,,,,,
504,0.0307123,,,,,,,,,,,,
503.5,0.0303911,,,,,,,,,,,,
503,0.0305796,,,,,,,,,,,,
502.5,0.0305181,,,,,,,,,,,,
502,0.0303881,,,,,,,,,,,,
501.5,0.031771,,,,,,,,,,,,
501,0.0312663,,,,,,,,,,,,
500.5,0.0321333,,,,,,,,,,,,
500,0.03130731,,,,,,,,,,,,
499.5,0.0315142,,,,,,,,,,,,
499,0.03159577,,,,,,,,,,,,
498.5,0.0321276,,,,,,,,,,,,
498,0.0320932,,,,,,,,,,,,
497.5,0.0315542,,,,,,,,,,,,
497,0.0324222,,,,,,,,,,,,
496.5,0.0316764,,,,,,,,,,,,
496,0.032886,,,,,,,,,,,,
495.5,0.0323057,,,,,,,,,,,,
495,0.0333214,,,,,,,,,,,,
494.5,0.0324962,,,,,,,,,,,,
494,0.03393615,,,,,,,,,,,,
493.5,0.0342547,,,,,,,,,,,,
493,0.0327446,,,,,,,,,,,,
492.5,0.0340649,,,,,,,,,,,,
492,0.0342814,,,,,,,,,,,,
491.5,0.0339121,,,,,,,,,,,,
491,0.0344444,,,,,,,,,,,,
490.5,0.0345317,,,,,,,,,,,,
490,0.034051,,,,,,,,,,,,
489.5,0.03424241,,,,,,,,,,,,
489,0.0346514,,,,,,,,,,,,
488.5,0.0344293,,,,,,,,,,,,
488,0.0353493,,,,,,,,,,,,
487.5,0.0352327,,,,,,,,,,,,
487,0.0342383,,,,,,,,,,,,
486.5,0.0341197,,,,,,,,,,,,
486,0.0351241,,,,,,,,,,,,
485.5,0.0347059,,,,,,,,,,,,
485,0.0344457,,,,,,,,,,,,
484.5,0.0348735,,,,,,,,,,,,
484,0.0344859,,,,,,,,,,,,
483.5,0.03503561,,,,,,,,,,,,
483,0.0354097,,,,,,,,,,,,
482.5,0.0353767,,,,,,,,,,,,
482,0.0351521,,,,,,,,,,,,
481.5,0.0348855,,,,,,,,,,,,
481,0.0352703,,,,,,,,,,,,
480.5,0.0352628,,,,,,,,,,,,
480,0.0352976,,,,,,,,,,,,
479.5,0.034679,,,,,,,,,,,,
479,0.0352485,,,,,,,,,,,,
478.5,0.035198,,,,,,,,,,,,
478,0.03594593,,,,,,,,,,,,
477.5,0.03557609,,,,,,,,,,,,
477,0.0362219,,,,,,,,,,,,
476.5,0.0351226,,,,,,,,,,,,
476,0.0370075,,,,,,,,,,,,
475.5,0.0352037,,,,,,,,,,,,
475,0.0356853,,,,,,,,,,,,
474.5,0.0360824,,,,,,,,,,,,
474,0.0361253,,,,,,,,,,,,
473.5,0.0363844,,,,,,,,,,,,
473,0.037028,,,,,,,,,,,,
472.5,0.0369009,,,,,,,,,,,,
472,0.0361971,,,,,,,,,,,,
471.5,0.0366804,,,,,,,,,,,,
471,0.03686377,,,,,,,,,,,,
470.5,0.0370974,,,,,,,,,,,,
470,0.0370559,,,,,,,,,,,,
469.5,0.0367936,,,,,,,,,,,,
469,0.0376977,,,,,,,,,,,,
468.5,0.03735064,,,,,,,,,,,,
468,0.0383521,,,,,,,,,,,,
467.5,0.0374077,,,,,,,,,,,,
467,0.0377774,,,,,,,,,,,,
466.5,0.0382098,,,,,,,,,,,,
466,0.0377764,,,,,,,,,,,,
465.5,0.0372365,,,,,,,,,,,,
465,0.0381618,,,,,,,,,,,,
464.5,0.0380746,,,,,,,,,,,,
464,0.0385469,,,,,,,,,,,,
463.5,0.0389208,,,,,,,,,,,,
463,0.0382256,,,,,,,,,,,,
462.5,0.03817074,,,,,,,,,,,,
462,0.0381828,,,,,,,,,,,,
461.5,0.0386022,,,,,,,,,,,,
461,0.0396437,,,,,,,,,,,,
460.5,0.0389667,,,,,,,,,,,,
460,0.0393779,,,,,,,,,,,,
459.5,0.0395272,,,,,,,,,,,,
459,0.03904359,,,,,,,,,,,,
458.5,0.03986,,,,,,,,,,,,
458,0.0395986,,,,,,,,,,,,
457.5,0.0392344,,,,,,,,,,,,
457,0.0398548,,,,,,,,,,,,
456.5,0.03959918,,,,,,,,,,,,
456,0.0398591,,,,,,,,,,,,
455.5,0.0403517,,,,,,,,,,,,
455,0.0406977,,,,,,,,,,,,
454.5,0.0399892,,,,,,,,,,,,
454,0.0402872,,,,,,,,,,,,
453.5,0.0408636,,,,,,,,,,,,
453,0.0405806,,,,,,,,,,,,
452.5,0.0408109,,,,,,,,,,,,
452,0.0409527,,,,,,,,,,,,
451.5,0.0415988,,,,,,,,,,,,
451,0.0412174,,,,,,,,,,,,
450.5,0.0418157,,,,,,,,,,,,
450,0.0416326,,,,,,,,,,,,
449.5,0.041973,,,,,,,,,,,,
449,0.0422721,,,,,,,,,,,,
448.5,0.04163694,,,,,,,,,,,,
448,0.0425092,,,,,,,,,,,,
447.5,0.04207851,,,,,,,,,,,,
447,0.0426189,,,,,,,,,,,,
446.5,0.0420554,,,,,,,,,,,,
446,0.0418484,,,,,,,,,,,,
445.5,0.04272873,,,,,,,,,,,,
445,0.0420461,,,,,,,,,,,,
444.5,0.0431814,,,,,,,,,,,,
444,0.0430637,,,,,,,,,,,,
443.5,0.0425923,,,,,,,,,,,,
443,0.0428991,,,,,,,,,,,,
442.5,0.0442856,,,,,,,,,,,,
442,0.0434361,,,,,,,,,,,,
441.5,0.04333942,,,,,,,,,,,,
441,0.0431503,,,,,,,,,,,,
440.5,0.04444563,,,,,,,,,,,,
440,0.0440946,,,,,,,,,,,,
439.5,0.0441625,,,,,,,,,,,,
439,0.04436205,,,,,,,,,,,,
438.5,0.0451573,,,,,,,,,,,,
438,0.0448334,,,,,,,,,,,,
437.5,0.0448032,,,,,,,,,,,,
437,0.0456806,,,,,,,,,,,,
436.5,0.0448935,,,,,,,,,,,,
436,0.0451401,,,,,,,,,,,,
435.5,0.0453128,,,,,,,,,,,,
435,0.0459524,,,,,,,,,,,,
434.5,0.0460731,,,,,,,,,,,,
434,0.0460932,,,,,,,,,,,,
433.5,0.04606292,,,,,,,,,,,,
433,0.0461376,,,,,,,,,,,,
432.5,0.0463221,,,,,,,,,,,,
432,0.0469759,,,,,,,,,,,,
431.5,0.0464613,,,,,,,,,,,,
431,0.0472637,,,,,,,,,,,,
430.5,0.046914,,,,,,,,,,,,
430,0.0483272,,,,,,,,,,,,
429.5,0.0476484,,,,,,,,,,,,
429,0.0484928,,,,,,,,,,,,
428.5,0.04932186,,,,,,,,,,,,
428,0.0488822,,,,,,,,,,,,
427.5,0.04907874,,,,,,,,,,,,
427,0.04916019,,,,,,,,,,,,
426.5,0.0501602,,,,,,,,,,,,
426,0.0495561,,,,,,,,,,,,
425.5,0.0498234,,,,,,,,,,,,
425,0.050772,,,,,,,,,,,,
424.5,0.0508402,,,,,,,,,,,,
424,0.0506732,,,,,,,,,,,,
423.5,0.05083032,,,,,,,,,,,,
423,0.0508566,,,,,,,,,,,,
422.5,0.0509029,,,,,,,,,,,,
422,0.0520159,,,,,,,,,,,,
421.5,0.0516236,,,,,,,,,,,,
421,0.0516784,,,,,,,,,,,,
420.5,0.0513571,,,,,,,,,,,,
420,0.0522869,,,,,,,,,,,,
419.5,0.053231,,,,,,,,,,,,
419,0.0519538,,,,,,,,,,,,
418.5,0.053627,,,,,,,,,,,,
418,0.0529266,,,,,,,,,,,,
417.5,0.0537248,,,,,,,,,,,,
417,0.0542032,,,,,,,,,,,,
416.5,0.0551514,,,,,,,,,,,,
416,0.0548543,,,,,,,,,,,,
415.5,0.0554629,,,,,,,,,,,,
415,0.0558872,,,,,,,,,,,,
414.5,0.0562352,,,,,,,,,,,,
414,0.0572384,,,,,,,,,,,,
413.5,0.0569091,,,,,,,,,,,,
413,0.057083,,,,,,,,,,,,
412.5,0.05790773,,,,,,,,,,,,
412,0.0579743,,,,,,,,,,,,
411.5,0.0590615,,,,,,,,,,,,
411,0.0583438,,,,,,,,,,,,
410.5,0.0603805,,,,,,,,,,,,
410,0.06030428,,,,,,,,,,,,
409.5,0.0608222,,,,,,,,,,,,
409,0.061192,,,,,,,,,,,,
408.5,0.0615323,,,,,,,,,,,,
408,0.06168877,,,,,,,,,,,,
407.5,0.0621018,,,,,,,,,,,,
407,0.062435,,,,,,,,,,,,
406.5,0.0624405,,,,,,,,,,,,
406,0.0626671,,,,,,,,,,,,
405.5,0.062884,,,,,,,,,,,,
405,0.0632687,,,,,,,,,,,,
404.5,0.0634828,,,,,,,,,,,,
404,0.0632532,,,,,,,,,,,,
403.5,0.0649641,,,,,,,,,,,,
403,0.0645461,,,,,,,,,,,,
402.5,0.065263,,,,,,,,,,,,
402,0.06542109,,,,,,,,,,,,
401.5,0.0650439,,,,,,,,,,,,
401,0.0656874,,,,,,,,,,,,
400.5,0.0653138,,,,,,,,,,,,
400,0.065606,,,,,,,,,,,,
399.5,0.0663591,,,,,,,,,,,,
399,0.0671,,,,,,,,,,,,
398.5,0.0659665,,,,,,,,,,,,
398,0.066348,,,,,,,,,,,,
397.5,0.0668386,,,,,,,,,,,,
397,0.0669673,,,,,,,,,,,,
396.5,0.0676315,,,,,,,,,,,,
396,0.0673259,,,,,,,,,,,,
395.5,0.0669794,,,,,,,,,,,,
395,0.0687616,,,,,,,,,,,,
394.5,0.06834653,,,,,,,,,,,,
394,0.0678576,,,,,,,,,,,,
393.5,0.0684152,,,,,,,,,,,,
393,0.0687814,,,,,,,,,,,,
392.5,0.06836392,,,,,,,,,,,,
392,0.0692993,,,,,,,,,,,,
391.5,0.0695649,,,,,,,,,,,,
391,0.0690668,,,,,,,,,,,,
390.5,0.0701301,,,,,,,,,,,,
390,0.0699887,,,,,,,,,,,,
389.5,0.0694105,,,,,,,,,,,,
389,0.0709828,,,,,,,,,,,,
388.5,0.071085,,,,,,,,,,,,
388,0.0711753,,,,,,,,,,,,
387.5,0.0708015,,,,,,,,,,,,
387,0.0722289,,,,,,,,,,,,
386.5,0.0726146,,,,,,,,,,,,
386,0.0725518,,,,,,,,,,,,
385.5,0.0729445,,,,,,,,,,,,
385,0.0728668,,,,,,,,,,,,
384.5,0.0732443,,,,,,,,,,,,
384,0.0740655,,,,,,,,,,,,
383.5,0.0745637,,,,,,,,,,,,
383,0.0746726,,,,,,,,,,,,
382.5,0.07452134,,,,,,,,,,,,
382,0.0746579,,,,,,,,,,,,
381.5,0.0759268,,,,,,,,,,,,
381,0.0763623,,,,,,,,,,,,
380.5,0.0755375,,,,,,,,,,,,
380,0.0770544,,,,,,,,,,,,
379.5,0.0771527,,,,,,,,,,,,
379,0.0772186,,,,,,,,,,,,
378.5,0.0776632,,,,,,,,,,,,
378,0.07753858,,,,,,,,,,,,
377.5,0.07821279,,,,,,,,,,,,
377,0.0792782,,,,,,,,,,,,
376.5,0.0790551,,,,,,,,,,,,
376,0.0791881,,,,,,,,,,,,
375.5,0.0801541,,,,,,,,,,,,
375,0.080293,,,,,,,,,,,,
374.5,0.0811968,,,,,,,,,,,,
374,0.0814625,,,,,,,,,,,,
373.5,0.0818064,,,,,,,,,,,,
373,0.08151,,,,,,,,,,,,
372.5,0.0835687,,,,,,,,,,,,
372,0.0827062,,,,,,,,,,,,
371.5,0.0841601,,,,,,,,,,,,
371,0.0848217,,,,,,,,,,,,
370.5,0.0855995,,,,,,,,,,,,
370,0.0856129,,,,,,,,,,,,
369.5,0.0851698,,,,,,,,,,,,
369,0.0870413,,,,,,,,,,,,
368.5,0.0881252,,,,,,,,,,,,
368,0.0888614,,,,,,,,,,,,
367.5,0.0888618,,,,,,,,,,,,
367,0.0894395,,,,,,,,,,,,
366.5,0.089488,,,,,,,,,,,,
366,0.0908824,,,,,,,,,,,,
365.5,0.0913032,,,,,,,,,,,,
365,0.0931535,,,,,,,,,,,,
364.5,0.0934507,,,,,,,,,,,,
364,0.0944994,,,,,,,,,,,,
363.5,0.0957301,,,,,,,,,,,,
363,0.0966668,,,,,,,,,,,,
362.5,0.0974698,,,,,,,,,,,,
362,0.0984224,,,,,,,,,,,,
361.5,0.0991373,,,,,,,,,,,,
361,0.10073,,,,,,,,,,,,
360.5,0.100023,,,,,,,,,,,,
360,0.101125,,,,,,,,,,,,
359.5,0.101373,,,,,,,,,,,,
359,0.101775,,,,,,,,,,,,
358.5,0.102886,,,,,,,,,,,,
358,0.102219,,,,,,,,,,,,
357.5,0.103838,,,,,,,,,,,,
357,0.104103,,,,,,,,,,,,
356.5,0.104898,,,,,,,,,,,,
356,0.104906,,,,,,,,,,,,
355.5,0.106729,,,,,,,,,,,,
355,0.105759,,,,,,,,,,,,
354.5,0.105931,,,,,,,,,,,,
354,0.106965,,,,,,,,,,,,
353.5,0.107044,,,,,,,,,,,,
353,0.107354,,,,,,,,,,,,
352.5,0.107576,,,,,,,,,,,,
352,0.109249,,,,,,,,,,,,
351.5,0.110289,,,,,,,,,,,,
351,0.109135,,,,,,,,,,,,
350.5,0.110355,,,,,,,,,,,,
350,0.111365,,,,,,,,,,,,