File: RawData/CPB_NCs_PLandPLE.csv
DS43_PL1,,DS43_PLE_490,,DS43_PLE_500,,DS43_PLE_510,,DS43_PLE_520,,DS43_PLE_530,
Wavelength (nm),Intensity (a.u.),Wavelength (nm),Intensity (a.u.),Wavelength (nm),Intensity (a.u.),Wavelength (nm),Intensity (a.u.),Wavelength (nm),Intensity (a.u.),Wavelength (nm),Intensity (a.u.)
460,0.177312,350,32.1596,350,162.963,350,472.988,350,224.532,350,62.6579
460.44,0.28767,350.46,31.7575,350.46,162.021,350.46,470.125,350.46,223.496,350.46,63.2179
461.04,0.168194,351.07,31.2852,351.07,159.993,351.07,471.262,351.07,222.858,351.07,63.3829
461.49,0.200088,351.53,31.0803,351.53,159.156,351.53,467.943,351.53,222.905,351.53,62.0585
461.94,0.200417,352,31.2451,352,156.936,352,462.105,352,221.187,352,62.8898
462.53,0.139878,352.46,31.0203,352.46,157.861,352.46,464.733,352.46,219.819,352.46,63.1319
462.98,0.210907,353.07,30.5799,353.07,157.153,353.07,460.629,353.07,217.236,353.07,62.4746
463.43,0.260088,353.53,30.6481,353.53,156.377,353.53,461.248,353.53,216.645,353.53,62.0928
464.02,0.257939,354,31.3052,354,156.157,354,454.885,354,216.829,354,60.9191
464.47,0.274009,354.46,30.2724,354.46,156.264,354.46,452.525,354.46,214.658,354.46,60.7606
465.07,0.341163,355.07,30.3455,355.07,154.354,355.07,449.27,355.07,215.348,355.07,61.749
465.52,0.432961,355.53,30.5259,355.53,155.148,355.53,451.044,355.53,212.277,355.53,60.2584
465.97,0.335591,356,29.979,356,153.659,356,446.968,356,211.097,356,60.1349
466.56,0.323969,356.46,30.169,356.46,150.981,356.46,446.306,356.46,210.423,356.46,60.109
467.01,0.341671,357.07,29.5993,357.07,151.686,357.07,444.975,357.07,210.761,357.07,60.2258
467.46,0.422149,357.53,28.9323,357.53,151.741,357.53,443.99,357.53,209.566,357.53,59.4902
468.05,0.515506,358,30.0029,358,150.344,358,446.896,358,210.416,358,59.4965
468.5,0.580312,358.46,29.5761,358.46,150.195,358.46,443.364,358.46,207.958,358.46,59.4014
468.95,0.456584,359.07,29.2052,359.07,148.839,359.07,434.421,359.07,205.743,359.07,59.382
469.55,0.486301,359.53,29.1999,359.53,146.624,359.53,432.153,359.53,202.52,359.53,58.578
470,0.639925,360,28.4841,360,146.391,360,424.738,360,200.359,360,57.8794
470.45,0.766093,360.46,29.0132,360.46,145.042,360.46,423.63,360.46,198.465,360.46,57.4553
471.06,0.647819,361.07,28.4844,361.07,143.769,361.07,418.753,361.07,197.584,361.07,56.4041
471.51,0.851725,361.53,27.9108,361.53,143.997,361.53,421.013,361.53,198.402,361.53,56.7437
471.96,0.894245,362,28.4798,362,143.877,362,420.241,362,198.071,362,56.4898
472.57,0.9381724,362.46,28.0073,362.46,144.023,362.46,418.513,362.46,199.481,362.46,56.5015
473.03,0.887547,363.07,27.8877,363.07,142.788,363.07,412.818,363.07,197.047,363.07,55.512
473.48,1.09417,363.53,27.6803,363.53,140.382,363.53,409.257,363.53,195.163,363.53,55.2396
473.93,1.33269,364,26.841,364,137.67,364,404.285,364,190.918,364,54.3089
474.54,1.28065,364.46,27.4372,364.46,136.991,364.46,396.593,364.46,190.245,364.46,54.2033
475,1.40028,365.07,25.8001,365.07,135.242,365.07,393.428,365.07,186.051,365.07,52.8465
475.45,1.47365,365.53,26.2832,365.53,133.811,365.53,391.867,365.53,185.94,365.53,53.0346
476.06,1.75857,366,25.7417,366,131.299,366,387.667,366,184.128,366,52.0111
476.51,1.85519,366.46,25.9555,366.46,131.938,366.46,380.456,366.46,182.415,366.46,52.0822
476.96,2.08886,367.07,25.0978,367.07,129.592,367.07,378.97,367.07,179.055,367.07,51.7535
477.57,2.22266,367.53,24.9255,367.53,129.261,367.53,376.361,367.53,179.385,367.53,51.1384
478.03,2.20778,368,25.6736,368,127.43,368,375.425,368,177.492,368,50.1285
478.48,2.39153,368.46,25.2174,368.46,126.482,368.46,371.413,368.46,175.133,368.46,50.0403
478.93,2.98348,369.07,24.6105,369.07,124.376,369.07,361.681,369.07,173.854,369.07,49.0101
479.54,2.94611,369.53,23.9386,369.53,123.715,369.53,363.402,369.53,171.338,369.53,48.3092
480,3.28947,370,24.4602,370,122.163,370,356.151,370,169.459,370,48.0692
480.44,3.41417,370.46,24.2025,370.46,122.107,370.46,355.446,370.46,169.11,370.46,48.228
481.04,4.04854,371.07,23.9475,371.07,121.181,371.07,353.387,371.07,169.368,371.07,48.7589
481.49,4.07864,371.53,23.7818,371.53,119.835,371.53,351.404,371.53,166.714,371.53,47.4049
481.94,4.56823,372,24.2091,372,120.112,372,348.989,372,167.725,372,47.2022
482.53,5.11867,372.46,23.6828,372.46,118.822,372.46,348.972,372.46,164.674,372.46,46.6816
482.98,5.61235,373.07,23.7447,373.07,119.302,373.07,346.415,373.07,164.718,373.07,47.2353
483.43,6.06927,373.53,23.2414,373.53,118.806,373.53,342.059,373.53,162.881,373.53,46.7149
484.02,6.602,374,23.2053,374,116.599,374,340.439,374,160.7,374,45.9968
484.47,7.16157,374.46,22.9895,374.46,117.542,374.46,338.434,374.46,160.049,374.46,45.9207
485.07,7.89575,375.07,22.9232,375.07,116.043,375.07,335.95,375.07,159.423,375.07,45.225
485.52,8.5588,375.53,22.9258,375.53,114.821,375.53,332.61,375.53,159.488,375.53,45.2244
485.97,9.62484,376,22.9188,376,114.134,376,331.076,376,155.233,376,44.3076
486.56,10.3807,376.46,22.6426,376.46,113.768,376.46,328.561,376.46,156.145,376.46,44.3397
487.01,11.5746,377.07,22.4933,377.07,114.832,377.07,330.472,377.07,156.133,377.07,44.622
487.46,12.1598,377.53,22.4155,377.53,112.951,377.53,329.959,377.53,155.281,377.53,45.098
488.05,13.75,378,22.6448,378,114.636,378,331.662,378,157.721,378,44.7303
488.5,14.5528,378.46,22.3144,378.46,112.561,378.46,331.815,378.46,155.901,378.46,44.1255
488.95,15.3975,379.07,22.4466,379.07,110.684,379.07,325.001,379.07,154.266,379.07,44.2376
489.55,17.8872,379.53,22.9165,379.53,110.427,379.53,325.509,379.53,153.109,379.53,43.8514
490,18.7701,380,22.0544,380,110.485,380,320.85,380,151.134,380,43.3652
490.44,20.4445,380.46,21.8298,380.46,109.472,380.46,319.463,380.46,151.699,380.46,43.2844
491.04,22.7172,381.07,21.8264,381.07,109.226,381.07,316.5,381.07,150.018,381.07,42.9198
491.49,24.2719,381.53,21.576,381.53,110.336,381.53,314.737,381.53,149.821,381.53,42.039
491.94,26.7414,382,21.8634,382,108.768,382,311.957,382,147.743,382,42.6743
492.53,29.3941,382.46,21.461,382.46,109.213,382.46,313.014,382.46,148.003,382.46,42.3727
492.98,31.9867,383.07,22.0947,383.07,106.792,383.07,311.39,383.07,147.217,383.07,42.5619
493.43,34.114,383.53,21.1009,383.53,107.842,383.53,312.624,383.53,146.196,383.53,42.3841
494.02,38.1086,384,21.9774,384,106.503,384,308.143,384,146.116,384,41.5665
494.47,39.9415,384.46,21.3771,384.46,107.131,384.46,308.722,384.46,146.875,384.46,42.5379
495.07,43.4287,385.07,20.86903,385.07,106.349,385.07,307.771,385.07,144.527,385.07,41.1102
495.52,47.313,385.53,21.0223,385.53,106.886,385.53,305.745,385.53,144.887,385.53,41.622
495.97,50.412,386,20.4643,386,104.93,386,305.713,386,144.018,386,40.7978
496.56,55.176,386.46,20.5612,386.46,104.449,386.46,304.023,386.46,142.383,386.46,40.5001
497.01,59.3024,387.07,20.2,387.07,105.025,387.07,300.009,387.07,143.498,387.07,40.7312
497.46,63.9921,387.53,20.4095,387.53,104.181,387.53,301.126,387.53,142.408,387.53,41.1287
498.05,70.3163,388,20.5172,388,103.279,388,299.471,388,142.593,388,40.7836
498.5,75.32444,388.46,20.3087,388.46,104.033,388.46,298.159,388.46,141.112,388.46,40.176
498.95,81.5452,389.07,20.2671,389.07,104.092,389.07,298.833,389.07,141.864,389.07,40.8867
499.55,87.3723,389.53,19.9504,389.53,102.477,389.53,295.632,389.53,141.009,389.53,40.9346
500,95.4256,390,20.0808,390,101.575,390,294.647,390,139.106,390,39.8057
500.44,102.427,390.45,20.1483,390.45,101.153,390.45,291.556,390.45,137.374,390.45,39.0843
501.04,110.819,391.06,20.2964,391.06,102.155,391.06,291.131,391.06,136.557,391.06,39.4561
501.49,119.758,391.51,19.818,391.51,101.415,391.51,290.438,391.51,138.629,391.51,38.7695
501.94,126.847,391.96,20.296,391.96,101.053,391.96,292.814,391.96,138.32,391.96,39.329
502.53,140.02,392.57,20.2116,392.57,100.305,392.57,291.066,392.57,137.19,392.57,39.0402
502.98,148.742,393.03,19.8889,393.03,101.562,393.03,289.695,393.03,137.071,393.03,38.4959
503.43,159.467,393.48,20.0852,393.48,99.5345,393.48,287.122,393.48,136.057,393.48,39.1692
504.02,170.47,393.93,19.6005,393.93,100.368,393.93,285.72,393.93,134.962,393.93,38.5788
504.47,180.466,394.54,19.7657,394.54,99.3793,394.54,285.334,394.54,134.62,394.54,38.5816
505.07,196.119,395,19.6821,395,100.485,395,286.43,395,135.333,395,38.5988
505.52,204.473,395.45,19.6259,395.45,99.0939,395.45,287.633,395.45,135.501,395.45,38.3866
505.97,217.418,396.06,19.6384,396.06,98.0891,396.06,282.297,396.06,134.803,396.06,38.5389
506.56,227.336,396.51,19.5736,396.51,96.4994,396.51,282.752,396.51,134.978,396.51,37.9914
507.01,237.495,396.96,19.1172,396.96,98.2831,396.96,280.532,396.96,134.053,396.96,37.667
507.46,248.92,397.57,19.4953,397.57,97.0486,397.57,279.152,397.57,133.234,397.57,36.8987
508.05,255.883,398.03,19.2139,398.03,96.3705,398.03,277.44,398.03,131.171,398.03,36.8217
508.5,264.167,398.48,18.6441,398.48,96.828,398.48,277.377,398.48,131.382,398.48,37.9397
508.95,265.971,398.93,19.1262,398.93,95.783,398.93,278.71,398.93,130.318,398.93,37.3457
509.55,271.145,399.54,18.9237,399.54,96.0765,399.54,276.275,399.54,131.08,399.54,37.8478
510,275.842,400,18.6246,400,96.2537,400,277.01,400,130.495,400,37.0168
510.44,276.982,400.46,18.5864,400.46,95.6078,400.46,274.119,400.46,130.322,400.46,37.4833
511.04,274.352,401.07,19.0716,401.07,94.175,401.07,274.435,401.07,129.235,401.07,37.2743
511.49,275.064,401.53,18.1557,401.53,95.0502,401.53,275.002,401.53,129.017,401.53,36.2309
511.94,270.685,402,18.9506,402,94.7297,402,271.976,402,128.895,402,36.2087
512.53,265.978,402.46,18.418,402.46,93.5772,402.46,271.234,402.46,127.482,402.46,36.5279
512.98,259.49,403.07,18.0671,403.07,92.7632,403.07,270.219,403.07,127.13,403.07,35.5637
513.43,249.879,403.53,18.506,403.53,93.0825,403.53,268.946,403.53,127.769,403.53,36.6161
514.02,239.752,404,18.4312,404,92.3062,404,267.767,404,126.461,404,36.2168
514.47,230.516,404.46,18.5242,404.46,92.6134,404.46,268.904,404.46,126.543,404.46,36.9333
515.07,221.232,405.07,18.372,405.07,93.0981,405.07,269.58,405.07,127.593,405.07,36.3096
515.52,210.727,405.53,17.9773,405.53,92.6587,405.53,269.18,405.53,126.016,405.53,36.6669
515.97,202.835,406,18.0009,406,91.9159,406,266.42,406,125.421,406,36.392
516.56,193.19,406.46,18.1161,406.46,91.2802,406.46,264.015,406.46,125.695,406.46,35.6104
517.01,181.966,407.07,18.0389,407.07,89.9945,407.07,263.152,407.07,124.118,407.07,35.074
517.46,175.091,407.53,17.4584,407.53,89.4664,407.53,260.191,407.53,123.685,407.53,35.0751
518.05,160.714,408,17.2174,408,89.1564,408,258.805,408,122.059,408,34.6342
518.5,156.865,408.46,17.8283,408.46,89.2734,408.46,256.408,408.46,120.831,408.46,34.79
518.95,147.239,409.07,17.4715,409.07,88.7583,409.07,253.572,409.07,119.689,409.07,34.0981
519.55,137.874,409.53,17.5369,409.53,87.9144,409.53,254.598,409.53,118.876,409.53,34.2845
520,132.553,410,16.9109,410,86.6546,410,253.437,410,119.47,410,34.5145
520.44,123.419,410.45,17.0792,410.45,86.6986,410.45,252.502,410.45,119.057,410.45,33.9404
521.02,117.179,411.06,16.9702,411.06,86.5328,411.06,249.743,411.06,117.967,411.06,33.8616
521.47,108.711,411.51,17.0937,411.51,85.1303,411.51,247.064,411.51,116.218,411.51,33.7251
522.05,102.133,411.96,16.5161,411.96,84.3834,411.96,245.144,411.96,116.497,411.96,33.0223
522.5,96.2139,412.57,16.6272,412.57,83.4656,412.57,242.882,412.57,114.045,412.57,32.9027
522.94,90.7703,413.03,16.5068,413.03,82.9516,413.03,238.551,413.03,113.252,413.03,31.9952
523.52,84.838,413.48,16.1105,413.48,82.646,413.48,238.72,413.48,112.276,413.48,32.5864
523.97,80.022,413.93,16.5404,413.93,82.4294,413.93,235.953,413.93,112.46,413.93,32.0714
524.55,75.6364,414.54,16.108,414.54,80.5817,414.54,234.715,414.54,110.778,414.54,31.5853
525,70.261,415,15.9208,415,79.6503,415,234.335,415,109.601,415,31.397
525.44,66.8279,415.45,15.7832,415.45,79.21,415.45,230.009,415.45,109.963,415.45,30.7298
526.02,61.5016,416.06,15.9651,416.06,78.6728,416.06,227.692,416.06,107.899,416.06,31.0948
526.47,57.9432,416.51,15.6354,416.51,76.797,416.51,225.345,416.51,106.487,416.51,30.8747
527.05,54.6416,416.96,15.7215,416.96,76.9734,416.96,224.78,416.96,106.487,416.96,30.2922
527.5,51.3237,417.57,15.0723,417.57,76.228,417.57,223.323,417.57,105.224,417.57,30.1343
527.94,48.7899,418.03,15.3334,418.03,76.6403,418.03,221.092,418.03,104.722,418.03,29.8895
528.52,44.8689,418.48,15.1796,418.48,76.8151,418.48,221.249,418.48,104.553,418.48,29.791
528.97,42.9107,418.93,14.9143,418.93,75.8695,418.93,220.467,418.93,104.52,418.93,29.4986
529.55,39.5756,419.54,15.1443,419.54,74.7832,419.54,219.492,419.54,103.702,419.54,29.3778
530,37.47,420,15.0113,420,75.6458,420,217.431,420,102.229,420,29.5116
530.44,36.2875,420.46,14.6795,420.46,74.6883,420.46,215.252,420.46,102.52,420.46,29.0986
531.04,32.1944,421.07,14.8399,421.07,75.1923,421.07,217.841,421.07,102.286,421.07,29.328
531.49,31.3817,421.53,14.5,421.53,74.8681,421.53,216.255,421.53,102.293,421.53,29.2962
531.94,29.9059,422,14.437,422,74.5988,422,215.675,422,102.285,422,28.9647
532.53,27.9638,422.46,14.6267,422.46,73.2793,422.46,214.187,422.46,101.478,422.46,28.8783
532.98,26.1018,423.07,14.5367,423.07,73.0335,423.07,211.754,423.07,100.471,423.07,28.4057
533.43,25.3178,423.53,14.4916,423.53,72.7676,423.53,211.913,423.53,99.6781,423.53,28.7114
534.02,23.2068,424,14.5124,424,72.9667,424,211.102,424,100.168,424,28.656
534.47,22.1642,424.46,14.4126,424.46,72.799,424.46,209.971,424.46,99.9636,424.46,28.2631
535.07,20.8535,425.07,14.2639,425.07,72.7106,425.07,209.751,425.07,99.2704,425.07,28.5371
535.52,19.0451,425.53,14.2989,425.53,71.9538,425.53,209.33,425.53,98.9535,425.53,28.0528
535.97,18.2453,426,14.2872,426,71.5866,426,208.458,426,98.9795,426,28.4201
536.56,17.4335,426.46,14.267,426.46,71.7222,426.46,207.834,426.46,98.2948,426.46,28.0635
537.01,16.2668,427.07,14.2779,427.07,71.4839,427.07,206.987,427.07,98.3917,427.07,28.2073
537.46,15.3766,427.53,14.1379,427.53,70.4864,427.53,206.097,427.53,97.7034,427.53,27.6044
538.05,14.4561,428,14.11,428,70.4665,428,204.443,428,96.79,428,27.7991
538.5,13.758,428.46,14.1228,428.46,70.5618,428.46,205.349,428.46,96.8219,428.46,27.6968
538.95,13.1579,429.07,13.8706,429.07,70.2566,429.07,202.548,429.07,96.1412,429.07,27.546
539.55,11.4639,429.53,14.0806,429.53,69.4761,429.53,201.767,429.53,96.6287,429.53,27.371
540,11.5889,430,13.1156,430,69.6971,430,201.552,430,95.7663,430,27.1886
540.44,10.6652,430.45,13.7862,430.45,69.2294,430.45,202.116,430.45,94.8527,430.45,27.2731
541.02,10.0532,431.06,13.6902,431.06,69.467,431.06,200.757,431.06,95.4528,431.06,27.0537
541.47,9.3738,431.51,13.4609,431.51,68.8836,431.51,198.592,431.51,94.161,431.51,27.0623
542.05,8.66142,431.96,13.5515,431.96,69.3189,431.96,198.396,431.96,94.1024,431.96,27.1348
542.5,8.51051,432.57,13.6789,432.57,68.7677,432.57,198.757,432.57,94.0991,432.57,26.84
542.94,7.7154,433.03,13.2721,433.03,68.3111,433.03,197.799,433.03,93.7161,433.03,26.5766
543.52,7.27033,433.48,13.6362,433.48,67.8098,433.48,197.233,433.48,92.997,433.48,26.581
543.97,6.8981,433.93,13.3575,433.93,67.7989,433.93,195.832,433.93,94.5098,433.93,26.6102
544.55,6.60861,434.54,13.4265,434.54,67.7251,434.54,196.256,434.54,93.3661,434.54,26.6463
545,6.10064,435,13.4002,435,67.3999,435,195.29,435,93.1656,435,26.6201
545.44,6.04936,435.45,13.5362,435.45,66.6833,435.45,195.882,435.45,92.57,435.45,26.0888
546.02,5.34865,436.06,13.3827,436.06,66.693,436.06,194.731,436.06,92.1757,436.06,26.3078
546.47,5.3708,436.51,13.3689,436.51,66.1444,436.51,194.766,436.51,91.6465,436.51,26.1555
547.05,4.90775,436.96,12.992,436.96,66.5694,436.96,192.899,436.96,91.3487,436.96,26.3597
547.5,4.66284,437.57,13.3001,437.57,66.1212,437.57,192.697,437.57,91.7661,437.57,26.0728
547.94,4.30433,438.03,13.0525,438.03,65.7155,438.03,192.163,438.03,90.5661,438.03,26.1898
548.52,4.07548,438.48,13.2078,438.48,66.0538,438.48,191.423,438.48,90.8565,438.48,25.814
548.97,3.78847,438.93,12.8362,438.93,66.382,438.93,191.077,438.93,90.3053,438.93,25.9173
549.55,3.65606,439.54,13.4599,439.54,65.6151,439.54,190.568,439.54,89.1719,439.54,25.5323
550,3.53336,440,13.0654,440,64.6793,440,190.417,440,91.2239,440,25.7555
550.44,3.15252,440.45,13.0357,440.45,66.111,440.45,190.808,440.45,90.3199,440.45,26.0301
551.04,2.79149,441.06,13.2736,441.06,65.6497,441.06,190.726,441.06,90.3212,441.06,25.8266
551.49,2.84293,441.51,13.0135,441.51,65.7835,441.51,191.203,441.51,89.4118,441.51,25.886
551.94,2.69578,441.96,12.8124,441.96,65.1443,441.96,190.563,441.96,90.4517,441.96,25.6151
552.53,2.60388,442.57,12.8974,442.57,65.2007,442.57,189.225,442.57,89.9154,442.57,25.4643
552.98,2.49349,443.03,13.0601,443.03,64.4651,443.03,189.424,443.03,89.5471,443.03,25.6751
553.43,2.23831,443.48,12.7083,443.48,64.3544,443.48,187.977,443.48,89.0277,443.48,25.3661
554.02,2.25289,443.93,12.6789,443.93,64.8234,443.93,187.59,443.93,88.6116,443.93,25.4272
554.47,2.04745,444.54,12.7166,444.54,64.4285,444.54,187.942,444.54,88.8373,444.54,25.3542
555.07,1.8399,445,12.6046,445,63.9091,445,186.592,445,89.1773,445,25.3884
555.52,1.72991,445.45,12.7444,445.45,64.1721,445.45,185.546,445.45,88.8352,445.45,25.5069
555.97,1.61462,446.06,13.0217,446.06,63.8843,446.06,186.33,446.06,88.7338,446.06,25.4261
556.56,1.55348,446.51,12.7679,446.51,64.2278,446.51,185.881,446.51,88.5764,446.51,25.2775
557.01,1.60712,446.96,12.8291,446.96,64.7074,446.96,187.035,446.96,88.6672,446.96,25.3676
557.46,1.36377,447.57,12.6303,447.57,64.0764,447.57,187.077,447.57,88.6051,447.57,25.4839
558.05,1.38856,448.03,12.597,448.03,64.3945,448.03,187.424,448.03,88.6541,448.03,25.8161
558.5,1.25118,448.48,12.6694,448.48,64.1722,448.48,187.052,448.48,89.658,448.48,25.7759
558.95,1.29652,448.93,12.4716,448.93,64.2784,448.93,187.347,448.93,89.0979,448.93,25.1493
559.55,1.19533,449.54,12.7881,449.54,62.8521,449.54,186.191,449.54,88.2052,449.54,25.4332
560,1.08611,450,12.527,450,64.2871,450,184.843,450,87.6823,450,25.1287
560.44,1.15315,450.45,12.4155,450.45,64.1723,450.45,184.103,450.45,87.8771,450.45,25.2402
561.02,1.0012,451.06,12.7002,451.06,63.2353,451.06,184.615,451.06,88.2826,451.06,24.8532
561.47,1.08139,451.51,12.4018,451.51,63.329,451.51,184.432,451.51,87.8173,451.51,24.3357
562.05,0.795101,451.96,12.4499,451.96,62.7964,451.96,185.433,451.96,87.2139,451.96,25.3754
562.5,0.812207,452.57,12.3762,452.57,63.0149,452.57,187.428,452.57,87.9904,452.57,25.4987
562.94,0.752836,453.03,12.5261,453.03,64.1737,453.03,185.709,453.03,87.9779,453.03,24.9619
563.52,0.622862,453.48,12.5566,453.48,63.813,453.48,185.005,453.48,88.2238,453.48,25.2302
563.97,0.649232,453.93,12.4124,453.93,63.4162,453.93,184.696,453.93,87.2053,453.93,25.6245
564.55,0.660679,454.54,12.4645,454.54,63.4498,454.54,184.144,454.54,87.4559,454.54,25.114
565,0.621968,455,12.2621,455,63.1972,455,186.204,455,88.1085,455,25.2062
565.44,0.601589,455.45,12.3175,455.45,62.7538,455.45,183.765,455.45,88.1716,455.45,25.4932
566.02,0.682178,456.06,12.0893,456.06,63.2643,456.06,184.979,456.06,87.4614,456.06,25.0503
566.47,0.504879,456.51,12.3935,456.51,62.7207,456.51,183.999,456.51,87.6157,456.51,25.0106
567.05,0.589659,456.96,12.6354,456.96,62.2886,456.96,184.451,456.96,87.3034,456.96,24.9839
567.5,0.404568,457.57,12.1853,457.57,63.4064,457.57,183.387,457.57,87.0011,457.57,24.8358
567.94,0.400822,458.03,12.1887,458.03,62.288,458.03,182.842,458.03,85.7175,458.03,24.5907
568.52,0.325882,458.48,12.0206,458.48,62.5769,458.48,182.697,458.48,86.1978,458.48,25.0789
568.97,0.337082,458.93,12.2007,458.93,62.7612,458.93,181.952,458.93,87.2022,458.93,25.0814
569.55,0.454724,459.54,12.16784,459.54,62.5173,459.54,184.724,459.54,87.8997,459.54,24.9456
570,0.394494,460,12.2834,460,62.7238,460,183.496,460,88.3986,460,25.1777
570.43,0.357489,460.44,12.4757,460.44,63.6121,460.44,185.245,460.44,87.7627,460.44,25.395
571.01,0.247074,461.04,12.5043,461.04,63.8274,461.04,184.851,461.04,88.2845,461.04,25.1061
571.44,0.236363,461.49,12.2074,461.49,63.3174,461.49,185.871,461.49,87.459,461.49,25.2724
572.02,0.162847,461.94,12.2882,461.94,63.9936,461.94,184.639,461.94,88.5536,461.94,25.0282
572.46,0.288401,462.53,12.333,462.53,63.1482,462.53,182.876,462.53,87.941,462.53,24.948
573.04,0.376506,462.98,12.2606,462.98,62.6998,462.98,184.814,462.98,87.2189,462.98,25.3634
573.47,0.326641,463.43,12.152,463.43,62.8295,463.43,184.899,463.43,86.727,463.43,25.2665
574.05,0.264018,464.02,12.1944,464.02,61.9522,464.02,184.365,464.02,87.5896,464.02,25.0731
574.49,0.274371,464.47,12.1517,464.47,62.7255,464.47,183.374,464.47,87.5891,464.47,24.7755
575.07,0.232688,465.07,12.4293,465.07,62.8816,465.07,183.248,465.07,86.9896,465.07,24.6456
575.5,0.213293,465.52,12.2781,465.52,63.7504,465.52,183.64,465.52,87.0295,465.52,25.1502
575.94,0.177124,465.97,12.1845,465.97,62.6588,465.97,183.214,465.97,87.8376,465.97,24.9116
576.52,0.296451,466.56,11.9803,466.56,61.8742,466.56,185.088,466.56,87.3398,466.56,25.4186
576.95,0.17268,467.01,12.239,467.01,61.6323,467.01,183.524,467.01,86.8244,467.01,24.4106
577.53,0.245341,467.46,11.9158,467.46,62.4658,467.46,184.22,467.46,88.1992,467.46,24.432
577.97,0.0603336,468.05,11.7171,468.05,61.6859,468.05,183.774,468.05,87.332,468.05,24.7488
578.55,0.173074,468.5,12.0995,468.5,61.7392,468.5,183.077,468.5,87.2474,468.5,25.0417
578.98,0.293412,468.95,11.8587,468.95,62.7613,468.95,181.649,468.95,86.6526,468.95,24.5476
579.56,0.205867,469.55,11.6856,469.55,61.9526,469.55,182.544,469.55,86.7182,469.55,24.9482
580,0.250203,470,12.3753,470,62.485,470,182.559,470,86.2007,470,24.7654
,,,,470.45,61.7028,470.45,179.757,470.45,86.3007,470.45,24.7425
,,,,471.06,62.828,471.06,181.373,471.06,86.4654,471.06,25.0551
,,,,471.51,62.0235,471.51,183.891,471.51,87.1948,471.51,24.2097
,,,,471.96,61.5705,471.96,181.893,471.96,85.3336,471.96,24.7301
,,,,472.57,61.6744,472.57,182.082,472.57,86.1055,472.57,24.7648
,,,,473.03,60.7676,473.03,181.57,473.03,86.4782,473.03,24.3361
,,,,473.48,61.1816,473.48,180.332,473.48,86.3573,473.48,24.4447
,,,,473.93,61.9044,473.93,180.297,473.93,86.0595,473.93,24.3136
,,,,474.54,60.631,474.54,179.706,474.54,85.7621,474.54,24.6212
,,,,475,61.1845,475,179.871,475,85.9214,475,24.9418
,,,,475.45,60.1637,475.45,178.947,475.45,85.5289,475.45,24.4172
,,,,476.06,60.7282,476.06,179.917,476.06,85.3363,476.06,24.7494
,,,,476.51,60.7786,476.51,178.213,476.51,85.4708,476.51,24.5059
,,,,476.96,60.563,476.96,177.921,476.96,84.5074,476.96,24.5901
,,,,477.57,59.9659,477.57,178.26,477.57,85.2673,477.57,24.6449
,,,,478.03,59.5995,478.03,179.621,478.03,85.8045,478.03,24.5504
,,,,478.48,60.0668,478.48,177.702,478.48,84.6306,478.48,24.1632
,,,,478.93,60.362,478.93,178.341,478.93,85.2895,478.93,24.1728
,,,,479.54,59.8494,479.54,177.259,479.54,84.4834,479.54,24.0007
,,,,480,60.4096,480,176.504,480,83.7487,480,24.0542
,,,,480.45,60.7751,480.45,175.622,480.45,83.0048,480.45,23.7821
,,,,481.06,60.0204,481.06,175.602,481.06,83.1765,481.06,24.0689
,,,,481.51,59.4755,481.51,175.535,481.51,82.6002,481.51,23.9452
,,,,481.96,58.6573,481.96,172.749,481.96,82.8899,481.96,23.6106
,,,,482.57,59.9175,482.57,173.107,482.57,82.3964,482.57,23.9286
,,,,483.03,59.3049,483.03,173.168,483.03,81.7289,483.03,23.2125
,,,,483.48,60.0279,483.48,175.752,483.48,83.5098,483.48,23.8129
,,,,483.93,60.2549,483.93,175.914,483.93,83.8652,483.93,24.0065
,,,,484.54,60.9698,484.54,178.412,484.54,84.4895,484.54,24.2516
,,,,485,61.4549,485,179.711,485,85.6125,485,24.4492
,,,,485.45,60.9947,485.45,178.363,485.45,85.1133,485.45,24.2674
,,,,486.06,59.5921,486.06,176.423,486.06,84.2051,486.06,23.8946
,,,,486.51,59.8371,486.51,177.18,486.51,83.6921,486.51,23.9869
,,,,486.96,60.2377,486.96,177.04,486.96,83.8191,486.96,23.8832
,,,,487.57,60.2035,487.57,178.346,487.57,84.215,487.57,23.7612
,,,,488.03,61.0919,488.03,178.943,488.03,84.7824,488.03,23.9784
,,,,488.48,61.5275,488.48,179.647,488.48,85.9732,488.48,24.3256
,,,,488.93,60.8711,488.93,179.229,488.93,85.0299,488.93,24.2923
,,,,489.54,60.6954,489.54,178.27,489.54,84.8485,489.54,24.4135
,,,,490,59.9938,490,177.355,490,83.9411,490,23.7667
,,,,,,490.44,176.208,490.44,82.9192,490.44,23.9527
,,,,,,491.04,174.114,491.04,83.5705,491.04,23.6304
,,,,,,491.49,174.318,491.49,83.9162,491.49,24.0021
,,,,,,491.94,177.181,491.94,84.0444,491.94,24.0127
,,,,,,492.53,177.284,492.53,85.0415,492.53,24.1056
,,,,,,492.98,176.513,492.98,85.1571,492.98,24.3666
,,,,,,493.43,174.691,493.43,84.7559,493.43,24.1161
,,,,,,494.02,174.181,494.02,83.2076,494.02,24.1136
,,,,,,494.47,170.625,494.47,81.1107,494.47,23.3808
,,,,,,495.07,169.049,495.07,80.7188,495.07,23.2395
,,,,,,495.52,166.145,495.52,80.0254,495.52,22.8222
,,,,,,495.97,164.704,495.97,80.4418,495.97,22.6524
,,,,,,496.56,164.136,496.56,79.8163,496.56,22.7756
,,,,,,497.01,163.833,497.01,79.3131,497.01,22.7177
,,,,,,497.46,164.541,497.46,78.3225,497.46,22.6883
,,,,,,498.05,163.104,498.05,78.2557,498.05,21.8872
,,,,,,498.5,161.724,498.5,77.5571,498.5,22.2919
,,,,,,498.95,161.627,498.95,76.6675,498.95,22.0053
,,,,,,499.55,161.059,499.55,77.7926,499.55,22.4501
,,,,,,500,161.497,500,78.0372,500,21.4922
,,,,,,,,500.44,77.2201,500.44,22.3853
,,,,,,,,501.04,77.3381,501.04,21.9411
,,,,,,,,501.49,76.6006,501.49,21.7059
,,,,,,,,501.94,76.3931,501.94,22.3
,,,,,,,,502.53,76.4317,502.53,21.7497
,,,,,,,,502.98,75.2295,502.98,21.0414
,,,,,,,,503.43,75.5792,503.43,21.8375
,,,,,,,,504.02,74.7554,504.02,21.3891
,,,,,,,,504.47,74.8365,504.47,21.5672
,,,,,,,,505.07,73.9691,505.07,21.3905
,,,,,,,,505.52,72.8045,505.52,21.0371
,,,,,,,,505.97,70.6747,505.97,20.4978
,,,,,,,,506.56,70.0928,506.56,19.9218
,,,,,,,,507.01,68.3418,507.01,19.7054
,,,,,,,,507.46,65.8098,507.46,18.4066
,,,,,,,,508.05,62.9438,508.05,17.9129
,,,,,,,,508.5,61.1194,508.5,17.2029
,,,,,,,,508.95,57.7732,508.95,17.3155
,,,,,,,,509.55,53.1536,509.55,15.4379
,,,,,,,,510,51.9673,510,14.8367
,,,,,,,,,,510.44,13.5244
,,,,,,,,,,511.04,12.6913
,,,,,,,,,,511.49,11.9915
,,,,,,,,,,511.94,11.4532
,,,,,,,,,,512.53,9.77391
,,,,,,,,,,512.98,8.9241
,,,,,,,,,,513.43,8.29699
,,,,,,,,,,514.02,7.2717
,,,,,,,,,,514.47,6.51786
,,,,,,,,,,515.07,6.14751
,,,,,,,,,,515.52,4.96177
,,,,,,,,,,515.97,4.90044
,,,,,,,,,,516.56,3.93074
,,,,,,,,,,517.01,3.30447
,,,,,,,,,,517.46,3.1128
,,,,,,,,,,518.05,2.4255
,,,,,,,,,,518.5,2.38498
,,,,,,,,,,518.95,2.23425
,,,,,,,,,,519.55,2.14997
,,,,,,,,,,520,1.68593